#2025/09/15 12:18:30
time,wx,wy,wz,ax,ay,az,T,pitch,roll,yaw
0.013,-0.00644,-0.00580,-0.00515,0.01316,-0.00716,-9.78291,40.040,40.949,41.463,48.421,0.08150,0.05136,-0.00025
0.023,-0.00626,-0.00571,-0.00550,-0.00458,0.02600,-9.80961,40.040,40.949,41.463,48.310,0.02796,-0.04911,-0.00039
0.033,-0.00611,-0.00571,-0.00555,-0.00035,-0.01631,-9.77403,40.040,40.897,41.463,48.310,0.00488,0.06190,-0.00042
0.043,-0.00619,-0.00576,-0.00555,0.04184,0.05242,-9.79003,40.040,40.897,41.463,48.421,0.06670,-0.03320,-0.00053
0.053,-0.00646,-0.00567,-0.00564,-0.02048,0.00875,-9.79794,40.040,40.897,41.463,48.310,-0.04634,-0.04417,-0.00060
0.063,-0.00664,-0.00553,-0.00564,0.00642,0.01113,-9.79606,40.040,40.897,41.463,48.421,0.06378,-0.07175,-0.00065
0.073,-0.00664,-0.00545,-0.00559,0.00960,-0.00973,-9.80541,40.040,40.897,41.463,48.752,0.05697,0.04173,-0.00058
0.083,-0.00646,-0.00558,-0.00541,0.03494,0.04936,-9.77956,40.040,40.897,41.463,48.421,0.10317,-0.06198,-0.00078
0.093,-0.00619,-0.00576,-0.00532,0.01372,-0.01160,-9.83118,40.040,40.897,41.463,48.310,0.08313,0.04953,-0.00066
0.103,-0.00611,-0.00580,-0.00541,0.00734,-0.00270,-9.81703,40.040,40.897,41.463,48.421,-0.00382,-0.02344,-0.00076
0.113,-0.00628,-0.00594,-0.00564,0.02496,0.01312,-9.76800,40.040,40.897,41.463,48.531,0.10264,-0.06144,-0.00084
0.123,-0.00628,-0.00580,-0.00568,0.01869,-0.04368,-9.84220,40.040,40.897,41.463,48.421,0.10478,0.05132,-0.00069
0.133,-0.00628,-0.00603,-0.00568,0.04226,-0.02114,-9.75578,40.040,40.897,41.466,48.531,0.20496,0.10215,-0.00061
0.143,-0.00633,-0.00616,-0.00559,0.01822,-0.01358,-9.74034,40.040,40.897,41.466,48.531,0.09583,0.07724,-0.00073
0.153,-0.00646,-0.00616,-0.00537,-0.01546,-0.03163,-9.76437,40.040,40.897,41.466,48.531,-0.00088,0.13330,-0.00074
0.163,-0.00651,-0.00625,-0.00519,-0.02286,-0.00287,-9.78310,40.040,40.897,41.466,48.531,-0.08518,0.05948,-0.00074
0.173,-0.00642,-0.00634,-0.00492,0.00658,-0.00309,-9.81462,40.040,40.897,41.466,48.421,0.02130,0.02367,-0.00076
0.183,-0.00638,-0.00647,-0.00456,-0.01793,-0.00874,-9.77833,40.044,40.897,41.466,48.531,-0.08856,0.04756,-0.00081
0.193,-0.00629,-0.00638,-0.00447,0.01915,-0.05634,-9.77310,40.044,40.897,41.466,48.421,-0.02358,0.13906,-0.00095
0.203,-0.00629,-0.00652,-0.00456,0.01305,0.01681,-9.78561,40.044,40.897,41.466,48.752,0.01998,0.03537,-0.00098
0.213,-0.00642,-0.00652,-0.00488,0.01991,-0.01802,-9.79264,40.044,40.897,41.466,48.531,0.11110,0.10147,-0.00096
0.223,-0.00655,-0.00652,-0.00505,0.03772,-0.00627,-9.78625,40.044,40.897,41.466,48.310,0.20814,0.04414,-0.00117
0.233,-0.00663,-0.00647,-0.00523,-0.03155,0.04282,-9.78286,40.044,40.922,41.466,48.310,0.11792,-0.02360,-0.00141
0.243,-0.00659,-0.00625,-0.00528,-0.00667,0.00271,-9.77833,40.044,40.922,41.466,48.531,0.00532,-0.01815,-0.00146
0.253,-0.00659,-0.00643,-0.00514,-0.02112,-0.00894,-9.81530,40.044,40.922,41.466,48.642,-0.09382,0.03596,-0.00154
0.263,-0.00659,-0.00625,-0.00492,0.04699,-0.03380,-9.78883,40.044,40.922,41.466,48.642,0.00958,0.08130,-0.00162
0.273,-0.00646,-0.00634,-0.00479,0.02937,0.02106,-9.73985,40.044,40.922,41.466,48.310,0.07942,-0.00666,-0.00174
0.283,-0.00632,-0.00652,-0.00470,-0.01120,0.00190,-9.75500,40.044,40.922,41.466,48.310,-0.03257,-0.01018,-0.00178
0.293,-0.00623,-0.00647,-0.00483,0.02417,0.04677,-9.77509,40.044,40.922,41.466,48.421,0.02909,-0.10372,-0.00182
0.303,-0.00619,-0.00620,-0.00523,0.02275,-0.06822,-9.80453,40.044,40.922,41.466,48.421,0.05181,0.00640,-0.00180
0.313,-0.00605,-0.00607,-0.00564,0.02649,0.04280,-9.75783,40.044,40.922,41.466,48.310,0.09363,-0.09773,-0.00198
0.323,-0.00601,-0.00629,-0.00573,-0.01159,0.00700,-9.77266,40.044,40.922,41.466,48.421,-0.01225,-0.06065,-0.00200
0.333,-0.00601,-0.00629,-0.00568,0.00515,-0.00556,-9.77401,40.044,40.922,41.468,48.310,0.03416,0.04135,-0.00204
0.343,-0.00596,-0.00620,-0.00555,-0.02227,-0.02187,-9.76911,40.044,40.922,41.468,48.421,-0.06502,0.09357,-0.00211
0.353,-0.00605,-0.00643,-0.00546,0.02338,0.02221,-9.81258,40.044,40.922,41.468,48.421,0.01029,0.01003,-0.00212
0.363,-0.00614,-0.00634,-0.00523,-0.01337,-0.01109,-9.78439,40.044,40.922,41.468,48.310,-0.08543,0.06927,-0.00220
0.373,-0.00623,-0.00647,-0.00501,0.02266,0.01510,-9.77361,40.044,40.922,41.468,48.310,0.00565,0.00334,-0.00220
0.383,-0.00637,-0.00643,-0.00479,0.03560,0.01392,-9.80424,40.040,40.922,41.468,48.421,0.10969,-0.04027,-0.00230
0.393,-0.00646,-0.00661,-0.00483,0.02991,0.01232,-9.77607,40.040,40.922,41.468,48.531,0.21099,-0.08965,-0.00247
0.403,-0.00650,-0.00661,-0.00505,0.00908,-0.00376,-9.75151,40.040,40.922,41.468,48.642,0.11935,-0.02477,-0.00233
0.413,-0.00650,-0.00656,-0.00519,0.01121,-0.00082,-9.81584,40.040,40.922,41.468,48.421,0.02054,0.02925,-0.00232
0.423,-0.00654,-0.00647,-0.00519,0.01111,0.04263,-9.76499,40.040,40.922,41.468,48.531,0.03821,-0.08176,-0.00242
0.433,-0.00664,-0.00660,-0.00510,-0.01420,0.01752,-9.78708,40.040,40.899,41.468,48.642,-0.07273,-0.10084,-0.00246
0.443,-0.00673,-0.00665,-0.00514,0.00714,-0.02085,-9.81671,40.040,40.899,41.468,48.310,-0.02125,-0.00061,-0.00259
0.453,-0.00678,-0.00656,-0.00519,0.00232,-0.01161,-9.79734,40.040,40.899,41.468,48.531,0.02987,0.10006,-0.00263
0.463,-0.00682,-0.00643,-0.00519,0.03427,-0.00506,-9.79024,40.040,40.899,41.468,48.310,0.13432,0.05686,-0.00274
0.473,-0.00687,-0.00656,-0.00519,-0.01213,0.00054,-9.79802,40.040,40.899,41.468,48.531,0.02559,0.02501,-0.00283
0.483,-0.00682,-0.00660,-0.00514,-0.01929,-0.02336,-9.79004,40.040,40.899,41.468,48.531,-0.06261,0.09605,-0.00290
0.493,-0.00682,-0.00674,-0.00519,-0.01311,0.00661,-9.76783,40.040,40.899,41.468,48.863,-0.07457,-0.01630,-0.00281
0.503,-0.00678,-0.00656,-0.00532,0.01192,0.01757,-9.77998,40.040,40.899,41.468,48.421,0.02214,-0.07441,-0.00283
0.513,-0.00664,-0.00656,-0.00568,0.02614,-0.00683,-9.80629,40.040,40.899,41.468,48.531,0.10725,0.00008,-0.00280
0.523,-0.00651,-0.00647,-0.00599,0.07029,0.01488,-9.76260,40.040,40.899,41.468,48.421,0.21563,-0.03103,-0.00294
0.533,-0.00655,-0.00629,-0.00608,0.06153,0.05753,-9.77484,40.040,40.899,41.467,48.421,0.26381,-0.13292,-0.00342
0.543,-0.00659,-0.00634,-0.00617,0.01164,0.00461,-9.82024,40.040,40.899,41.467,48.421,0.16451,-0.07926,-0.00328
0.553,-0.00664,-0.00647,-0.00626,-0.00504,0.02061,-9.81365,40.040,40.899,41.467,48.421,0.05382,-0.10276,-0.00338
0.563,-0.00660,-0.00651,-0.00626,0.02478,0.03756,-9.79121,40.040,40.899,41.467,48.531,0.12332,-0.19206,-0.00358
0.573,-0.00664,-0.00638,-0.00608,-0.01573,0.02028,-9.79671,40.040,40.899,41.467,48.421,0.01605,-0.15556,-0.00359
0.583,-0.00668,-0.00634,-0.00599,0.00558,-0.01386,-9.73063,40.042,40.899,41.467,48.421,0.02394,-0.04348,-0.00360
0.593,-0.00668,-0.00642,-0.00604,0.01914,0.00896,-9.77322,40.042,40.899,41.467,48.421,0.13564,-0.05498,-0.00366
0.603,-0.00660,-0.00634,-0.00604,-0.00148,0.02476,-9.79756,40.042,40.899,41.467,48.642,0.03994,-0.11454,-0.00382
0.613,-0.00651,-0.00616,-0.00599,0.00554,-0.03330,-9.79183,40.042,40.899,41.467,48.531,0.03714,-0.00182,-0.00379
0.623,-0.00642,-0.00620,-0.00599,0.04837,0.02617,-9.81511,40.042,40.899,41.467,48.642,0.13334,-0.06114,-0.00393
0.633,-0.00642,-0.00643,-0.00590,0.01851,-0.00562,-9.79740,40.042,40.903,41.467,48.421,0.10406,0.04816,-0.00376
0.643,-0.00646,-0.00651,-0.00582,-0.02081,0.02084,-9.82362,40.042,40.903,41.467,48.642,0.01356,-0.01999,-0.00387
0.653,-0.00660,-0.00678,-0.00573,0.01735,-0.04509,-9.77787,40.042,40.903,41.467,48.752,0.04697,0.08793,-0.00387
0.663,-0.00669,-0.00700,-0.00564,0.01173,-0.02011,-9.82397,40.042,40.903,41.467,48.531,0.11360,0.17919,-0.00379
0.673,-0.00669,-0.00701,-0.00555,0.00676,-0.02635,-9.79462,40.042,40.903,41.467,48.421,0.00631,0.14287,-0.00388
0.683,-0.00660,-0.00683,-0.00532,0.02030,0.00972,-9.77362,40.042,40.903,41.467,48.310,0.06174,0.04440,-0.00398
0.693,-0.00651,-0.00665,-0.00505,-0.01363,-0.02722,-9.80778,40.042,40.903,41.467,48.421,-0.02632,0.11567,-0.00400
0.703,-0.00651,-0.00674,-0.00501,0.02399,-0.01131,-9.74519,40.042,40.903,41.467,48.421,0.08167,0.08385,-0.00406
0.713,-0.00651,-0.00665,-0.00501,0.04191,-0.00667,-9.79632,40.042,40.903,41.467,48.531,0.19044,0.05393,-0.00417
0.723,-0.00642,-0.00674,-0.00501,0.02433,-0.03350,-9.79675,40.042,40.903,41.467,48.752,0.15407,0.16093,-0.00389
0.733,-0.00646,-0.00665,-0.00514,0.02670,-0.00040,-9.77450,40.042,40.903,41.472,48.531,0.15575,0.04803,-0.00425
0.743,-0.00651,-0.00652,-0.00528,0.01946,0.03795,-9.77832,40.042,40.903,41.472,48.752,0.13849,-0.06349,-0.00457
0.753,-0.00642,-0.00643,-0.00537,0.03261,0.01149,-9.77087,40.042,40.903,41.472,48.531,0.25072,-0.07187,-0.00465
0.763,-0.00624,-0.00607,-0.00546,0.01913,-0.00583,-9.83962,40.042,40.903,41.472,48.421,0.16109,-0.00387,-0.00445
0.773,-0.00601,-0.00580,-0.00537,-0.01651,0.01404,-9.77864,40.042,40.903,41.472,48.642,0.05342,-0.03663,-0.00456
0.783,-0.00575,-0.00536,-0.00519,0.00842,-0.02222,-9.77048,40.039,40.903,41.472,48.531,0.05067,0.07564,-0.00450
0.793,-0.00543,-0.00514,-0.00497,0.04042,-0.03877,-9.78480,40.039,40.903,41.472,48.752,0.13787,0.14657,-0.00443
0.803,-0.00530,-0.00514,-0.00483,0.00862,-0.00092,-9.78446,40.039,40.903,41.472,48.531,0.07861,0.05082,-0.00465
0.813,-0.00534,-0.00509,-0.00506,-0.00189,0.01890,-9.78231,40.039,40.903,41.472,48.310,0.02393,-0.04766,-0.00478
0.823,-0.00548,-0.00514,-0.00528,-0.02107,0.02579,-9.80389,40.039,40.903,41.472,48.421,-0.06861,-0.11251,-0.00480
0.833,-0.00558,-0.00527,-0.00541,0.01630,0.00604,-9.80779,40.039,40.880,41.472,48.310,0.03380,-0.06429,-0.00485
0.843,-0.00562,-0.00554,-0.00546,-0.05470,-0.00369,-9.77570,40.039,40.880,41.472,48.310,-0.07611,-0.03771,-0.00491
0.853,-0.00575,-0.00549,-0.00546,0.00390,0.01566,-9.76185,40.039,40.880,41.472,48.421,0.02268,-0.09185,-0.00493
0.863,-0.00575,-0.00545,-0.00532,0.02263,-0.01456,-9.79586,40.039,40.880,41.472,48.642,0.08210,0.00407,-0.00489
0.873,-0.00576,-0.00563,-0.00519,-0.01112,-0.01497,-9.78563,40.039,40.880,41.472,48.531,-0.01611,0.05979,-0.00490
0.883,-0.00589,-0.00580,-0.00506,0.00728,0.04384,-9.76737,40.039,40.880,41.472,48.421,0.00439,-0.05102,-0.00493
0.893,-0.00607,-0.00598,-0.00497,-0.00255,-0.00739,-9.77518,40.039,40.880,41.472,48.421,-0.01826,0.05920,-0.00498
0.903,-0.00625,-0.00585,-0.00497,0.02374,-0.02041,-9.78624,40.039,40.880,41.472,48.752,0.08688,0.09945,-0.00500
0.913,-0.00647,-0.00616,-0.00501,0.01655,0.02729,-9.80770,40.039,40.880,41.472,48.531,0.09111,-0.01354,-0.00521
0.923,-0.00674,-0.00616,-0.00510,0.03388,-0.00857,-9.78061,40.039,40.880,41.472,48.310,0.18816,0.04407,-0.00512
0.933,-0.00692,-0.00616,-0.00523,0.01341,0.01330,-9.78000,40.039,40.880,41.473,48.310,0.11269,-0.03994,-0.00538
0.943,-0.00709,-0.00594,-0.00510,0.04833,-0.01328,-9.80443,40.039,40.880,41.473,48.421,0.20568,0.02442,-0.00524
0.953,-0.00714,-0.00598,-0.00497,0.02220,0.03197,-9.74137,40.039,40.880,41.473,48.421,0.16813,-0.08168,-0.00563
0.963,-0.00705,-0.00576,-0.00488,0.00424,-0.01281,-9.79133,40.039,40.880,41.473,48.421,0.09204,0.00139,-0.00548
0.973,-0.00692,-0.00545,-0.00461,-0.00082,0.04085,-9.76775,40.039,40.880,41.473,48.421,0.05007,-0.10302,-0.00564
0.983,-0.00669,-0.00527,-0.00425,0.01057,-0.00371,-9.76760,40.022,40.880,41.473,48.531,0.06070,0.00871,-0.00557
0.993,-0.00656,-0.00554,-0.00389,0.00784,0.06752,-9.79622,40.022,40.880,41.473,48.421,0.05652,-0.10386,-0.00571
1.003,-0.00652,-0.00545,-0.00385,-0.00005,0.01625,-9.79922,40.022,40.880,41.473,48.531,-0.05505,-0.08650,-0.00574
1.013,-0.00652,-0.00523,-0.00398,-0.00252,-0.03281,-9.79419,40.022,40.880,41.473,48.421,-0.03890,0.02530,-0.00587
1.023,-0.00652,-0.00527,-0.00412,0.02684,-0.03223,-9.73846,40.022,40.880,41.473,48.531,0.04727,0.09724,-0.00588
1.033,-0.00654,-0.00549,-0.00421,-0.00061,-0.02969,-9.80625,40.022,40.948,41.473,48.642,-0.01532,0.19103,-0.00589
1.043,-0.00649,-0.00545,-0.00434,-0.00829,-0.06322,-9.80596,40.022,40.948,41.473,48.531,-0.03600,0.30220,-0.00598
1.053,-0.00640,-0.00545,-0.00452,-0.02649,0.02552,-9.81673,40.022,40.948,41.473,48.421,-0.06484,0.19261,-0.00592
1.063,-0.00636,-0.00536,-0.00465,0.00856,-0.00279,-9.79814,40.022,40.948,41.473,48.421,-0.00297,0.09756,-0.00590
1.073,-0.00622,-0.00567,-0.00474,0.05848,-0.00852,-9.76948,40.022,40.948,41.473,48.531,0.10900,0.08210,-0.00594
1.083,-0.00613,-0.00563,-0.00470,0.01712,0.02900,-9.75744,40.022,40.948,41.473,48.531,0.10517,-0.03052,-0.00620
1.093,-0.00609,-0.00589,-0.00461,-0.00027,-0.01092,-9.76838,40.022,40.948,41.473,48.421,0.02098,0.04401,-0.00615
1.103,-0.00613,-0.00616,-0.00474,0.00834,0.01504,-9.81133,40.022,40.948,41.473,48.642,0.04412,-0.06642,-0.00625
1.113,-0.00631,-0.00625,-0.00510,0.00074,0.03885,-9.75570,40.022,40.948,41.473,48.421,0.01722,-0.17560,-0.00635
1.123,-0.00644,-0.00607,-0.00550,0.00969,-0.00592,-9.79293,40.022,40.948,41.473,48.310,0.03795,-0.06497,-0.00633
1.133,-0.00658,-0.00611,-0.00564,-0.00123,0.00845,-9.77834,40.022,40.948,41.471,48.421,-0.06858,-0.02849,-0.00639
1.143,-0.00662,-0.00620,-0.00559,0.00272,0.02081,-9.79037,40.022,40.948,41.471,48.421,0.00702,-0.11211,-0.00639
1.153,-0.00662,-0.00611,-0.00568,-0.02096,-0.00522,-9.78031,40.022,40.948,41.471,48.531,-0.06886,-0.02881,-0.00649
1.163,-0.00658,-0.00611,-0.00577,-0.00854,-0.01917,-9.80496,40.022,40.948,41.471,48.310,-0.05384,0.08318,-0.00665
1.173,-0.00662,-0.00611,-0.00573,0.01426,-0.01886,-9.75884,40.022,40.948,41.471,48.421,0.05655,0.10526,-0.00670
1.183,-0.00653,-0.00616,-0.00550,-0.00244,0.03196,-9.76335,39.988,40.948,41.471,48.310,0.03007,-0.00401,-0.00683
1.193,-0.00640,-0.00625,-0.00514,0.03858,0.00576,-9.80188,39.988,40.948,41.471,48.310,0.14149,-0.02097,-0.00689
1.203,-0.00640,-0.00629,-0.00497,0.02766,-0.00801,-9.80510,39.988,40.948,41.471,48.421,0.17369,0.08737,-0.00663
1.213,-0.00640,-0.00625,-0.00506,0.00086,0.00164,-9.81899,39.988,40.948,41.471,48.531,0.07550,0.03092,-0.00679
1.223,-0.00644,-0.00611,-0.00523,0.02617,0.01655,-9.76156,39.988,40.948,41.471,48.421,0.13419,-0.06542,-0.00700
1.233,-0.00649,-0.00593,-0.00537,-0.01817,-0.00029,-9.76582,39.988,40.946,41.471,48.752,0.02574,-0.03525,-0.00701
1.243,-0.00636,-0.00589,-0.00537,-0.01838,-0.00865,-9.79883,39.988,40.946,41.471,48.310,-0.06914,0.02582,-0.00707
1.253,-0.00627,-0.00589,-0.00541,0.02895,0.00199,-9.79783,39.988,40.946,41.471,48.421,0.04249,0.00823,-0.00711
1.263,-0.00627,-0.00571,-0.00555,-0.01428,0.00979,-9.78590,39.988,40.946,41.471,48.421,-0.05785,-0.04394,-0.00715
1.273,-0.00626,-0.00544,-0.00559,0.03180,0.04870,-9.79764,39.988,40.946,41.471,48.531,0.02264,-0.12355,-0.00717
1.283,-0.00622,-0.00562,-0.00528,-0.01034,-0.00755,-9.80852,39.988,40.946,41.471,48.531,-0.02775,-0.02194,-0.00722
1.293,-0.00627,-0.00545,-0.00483,-0.01552,0.01265,-9.82006,39.988,40.946,41.471,48.531,-0.11526,-0.09427,-0.00715
1.303,-0.00618,-0.00540,-0.00448,-0.03809,0.04880,-9.80893,39.988,40.946,41.471,48.531,-0.17098,-0.19339,-0.00694
1.313,-0.00622,-0.00531,-0.00439,-0.02527,-0.03712,-9.80897,39.988,40.946,41.471,48.421,-0.16454,-0.07982,-0.00731
1.323,-0.00631,-0.00518,-0.00443,0.02445,0.01564,-9.81463,39.988,40.946,41.471,48.421,-0.05082,-0.08411,-0.00733
1.333,-0.00631,-0.00531,-0.00452,-0.02879,-0.05542,-9.76480,39.988,40.946,41.472,48.421,-0.08228,0.02475,-0.00749
1.343,-0.00645,-0.00545,-0.00461,0.01279,0.00459,-9.82065,39.988,40.946,41.472,48.531,0.02540,-0.01069,-0.00750
1.353,-0.00649,-0.00531,-0.00443,-0.02959,0.00246,-9.74605,39.988,40.946,41.472,48.421,-0.08734,-0.01288,-0.00754
1.363,-0.00640,-0.00509,-0.00398,-0.03192,0.04437,-9.78405,39.988,40.946,41.472,48.752,-0.12953,-0.11750,-0.00737
1.373,-0.00636,-0.00483,-0.00340,0.01231,0.01521,-9.76994,39.988,40.946,41.472,48.421,-0.01810,-0.10190,-0.00741
1.383,-0.00627,-0.00492,-0.00278,0.00108,-0.00100,-9.74341,39.993,40.946,41.472,48.531,0.00667,0.00730,-0.00744
1.393,-0.00605,-0.00510,-0.00206,-0.00071,-0.01987,-9.75394,39.993,40.946,41.472,48.421,-0.00436,0.11845,-0.00744
1.403,-0.00592,-0.00537,-0.00152,0.04072,-0.04140,-9.80330,39.993,40.946,41.472,48.642,0.09563,0.16938,-0.00740
1.413,-0.00579,-0.00510,-0.00130,-0.01551,-0.08047,-9.72558,39.993,40.946,41.472,48.421,0.03724,0.26439,-0.00729
1.423,-0.00574,-0.00523,-0.00134,-0.00629,0.01095,-9.80926,39.993,40.946,41.472,48.310,0.01257,0.15499,-0.00734
1.433,-0.00569,-0.00528,-0.00148,-0.01771,0.02038,-9.81519,39.993,40.950,41.472,48.421,-0.03131,0.05137,-0.00732
1.443,-0.00569,-0.00532,-0.00157,-0.01701,0.01879,-9.71267,39.993,40.950,41.472,48.531,-0.07501,-0.05128,-0.00724
1.453,-0.00561,-0.00528,-0.00148,-0.01179,-0.00254,-9.80044,39.993,40.950,41.472,48.642,-0.06477,0.06025,-0.00737
1.463,-0.00556,-0.00492,-0.00126,0.01328,0.04474,-9.81283,39.993,40.950,41.472,48.421,-0.01928,-0.04261,-0.00729
1.473,-0.00529,-0.00492,-0.00094,-0.00482,-0.02887,-9.80743,39.993,40.950,41.472,48.421,-0.02407,0.07011,-0.00733
1.483,-0.00503,-0.00501,-0.00094,0.01323,0.00882,-9.81701,39.993,40.950,41.472,48.310,0.04826,-0.01678,-0.00734
1.493,-0.00489,-0.00519,-0.00139,0.03189,-0.04404,-9.79241,39.993,40.950,41.472,48.421,0.09915,0.08422,-0.00722
1.503,-0.00467,-0.00559,-0.00215,-0.00236,-0.00293,-9.73295,39.993,40.950,41.472,48.531,0.00245,0.02695,-0.00728
1.513,-0.00467,-0.00581,-0.00295,-0.01382,0.00889,-9.75736,39.993,40.950,41.472,48.531,-0.07894,-0.05013,-0.00724
1.523,-0.00484,-0.00599,-0.00389,-0.03783,-0.03710,-9.77834,39.993,40.950,41.472,48.421,-0.13176,0.04876,-0.00745
1.533,-0.00511,-0.00594,-0.00470,0.00112,-0.02369,-9.76884,39.993,40.950,41.468,48.531,-0.03794,0.10991,-0.00758
1.543,-0.00542,-0.00612,-0.00541,-0.02871,-0.00072,-9.81844,39.993,40.950,41.468,48.531,-0.12507,0.03886,-0.00751
1.553,-0.00551,-0.00603,-0.00586,0.00698,0.01836,-9.76989,39.993,40.950,41.468,48.421,-0.04096,-0.03546,-0.00746
1.563,-0.00555,-0.00580,-0.00613,0.01816,-0.01271,-9.76205,39.993,40.950,41.468,48.531,0.04879,0.03150,-0.00750
1.573,-0.00542,-0.00598,-0.00626,-0.02569,-0.01011,-9.79960,39.993,40.950,41.468,48.531,-0.06263,0.04691,-0.00754
1.583,-0.00559,-0.00629,-0.00631,0.00175,-0.02588,-9.80183,39.984,40.950,41.468,48.531,0.00192,0.13935,-0.00764
1.593,-0.00582,-0.00665,-0.00640,0.00376,-0.04747,-9.81681,39.984,40.950,41.468,48.752,0.01812,0.25113,-0.00768
1.603,-0.00608,-0.00656,-0.00662,-0.02187,-0.01366,-9.79280,39.984,40.950,41.468,48.310,-0.05534,0.16505,-0.00771
1.613,-0.00631,-0.00669,-0.00684,0.02326,0.00512,-9.79135,39.984,40.950,41.468,48.531,0.02388,0.08424,-0.00773
1.623,-0.00640,-0.00664,-0.00698,0.00729,-0.04644,-9.79712,39.984,40.950,41.468,48.531,0.03511,0.19693,-0.00773
1.633,-0.00662,-0.00651,-0.00689,0.00330,-0.02277,-9.80946,39.984,40.958,41.468,48.531,0.00777,0.08670,-0.00783
1.643,-0.00684,-0.00624,-0.00662,0.00016,0.03792,-9.80918,39.984,40.958,41.468,48.421,0.00521,-0.02700,-0.00790
1.653,-0.00693,-0.00611,-0.00613,-0.02332,0.02849,-9.79743,39.984,40.958,41.468,48.531,-0.07581,-0.10690,-0.00789
1.663,-0.00684,-0.00611,-0.00555,0.06632,-0.01696,-9.80615,39.984,40.958,41.468,48.531,0.02821,-0.06068,-0.00795
1.673,-0.00671,-0.00616,-0.00506,-0.00108,-0.01124,-9.78204,39.984,40.958,41.468,48.421,-0.00177,0.04891,-0.00797
1.683,-0.00671,-0.00647,-0.00492,0.00468,0.01485,-9.75663,39.984,40.958,41.468,48.642,0.02193,-0.06171,-0.00803
1.693,-0.00680,-0.00687,-0.00519,0.01518,0.04238,-9.81004,39.984,40.958,41.468,48.421,0.06018,-0.16842,-0.00813
1.703,-0.00707,-0.00669,-0.00555,0.02524,-0.00940,-9.83645,39.984,40.958,41.468,48.421,0.10116,-0.06305,-0.00803
1.713,-0.00706,-0.00638,-0.00599,0.02952,-0.02874,-9.75012,39.984,40.958,41.468,48.421,0.13463,0.04436,-0.00785
1.723,-0.00702,-0.00633,-0.00626,0.03908,0.01148,-9.78537,39.984,40.958,41.468,48.531,0.20727,-0.04175,-0.00815
1.733,-0.00706,-0.00633,-0.00640,-0.03463,0.04013,-9.77722,39.984,40.958,41.469,48.310,0.10538,-0.08982,-0.00834
1.743,-0.00720,-0.00611,-0.00631,0.00978,0.02955,-9.77388,39.984,40.958,41.469,48.421,0.04917,-0.18733,-0.00852
1.753,-0.00733,-0.00624,-0.00626,0.01209,0.00255,-9.79291,39.984,40.958,41.469,48.531,0.06312,-0.07556,-0.00845
1.763,-0.00742,-0.00642,-0.00635,0.03138,0.00807,-9.78092,39.984,40.958,41.469,48.310,0.17278,-0.04992,-0.00845
1.773,-0.00738,-0.00655,-0.00644,-0.00056,-0.00123,-9.77557,39.984,40.958,41.469,48.421,0.06565,-0.01522,-0.00843
1.783,-0.00742,-0.00660,-0.00675,-0.00792,0.00051,-9.80085,39.989,40.958,41.469,48.642,-0.04662,-0.00298,-0.00847
1.793,-0.00742,-0.00655,-0.00729,-0.01790,0.01817,-9.74805,39.989,40.958,41.469,48.531,-0.10188,-0.10089,-0.00841
1.803,-0.00751,-0.00669,-0.00756,-0.02188,0.01684,-9.78704,39.989,40.958,41.469,48.752,-0.21399,-0.09107,-0.00849
1.813,-0.00759,-0.00642,-0.00747,0.02322,0.00242,-9.79176,39.989,40.958,41.469,48.421,-0.10398,-0.06693,-0.00862
1.823,-0.00764,-0.00606,-0.00693,0.00314,-0.01247,-9.77725,39.989,40.958,41.469,48.531,-0.02991,0.01780,-0.00877
1.833,-0.00761,-0.00624,-0.00649,0.04098,0.05020,-9.81135,39.989,40.933,41.469,48.421,0.04397,-0.06763,-0.00883
1.843,-0.00765,-0.00655,-0.00644,-0.04763,-0.03398,-9.85025,39.989,40.933,41.469,48.642,-0.04288,0.00404,-0.00889
1.853,-0.00770,-0.00646,-0.00662,0.01063,-0.03232,-9.76370,39.989,40.933,41.469,48.531,0.01250,0.10172,-0.00896
1.863,-0.00756,-0.00655,-0.00680,-0.00063,-0.03986,-9.77695,39.989,40.933,41.469,48.531,-0.00123,0.21317,-0.00900
1.873,-0.00738,-0.00687,-0.00698,0.00167,0.00511,-9.82019,39.989,40.933,41.469,48.531,0.00379,0.10064,-0.00906
1.883,-0.00738,-0.00691,-0.00702,0.00282,-0.03166,-9.80749,39.989,40.933,41.469,48.642,0.02054,0.21230,-0.00908
1.893,-0.00738,-0.00709,-0.00693,-0.03636,-0.01008,-9.77663,39.989,40.933,41.469,48.421,-0.07386,0.15037,-0.00910
1.903,-0.00738,-0.00691,-0.00671,-0.01578,-0.01053,-9.81815,39.989,40.933,41.469,48.310,-0.09659,0.03961,-0.00899
1.913,-0.00725,-0.00678,-0.00640,0.02050,-0.00299,-9.78333,39.989,40.933,41.469,48.421,0.01574,0.02810,-0.00903
1.923,-0.00721,-0.00687,-0.00608,0.04262,-0.04062,-9.80974,39.989,40.933,41.469,48.752,0.10000,0.10366,-0.00900
1.933,-0.00712,-0.00669,-0.00595,0.01432,0.02448,-9.77554,39.989,40.933,41.473,48.531,0.09262,-0.00919,-0.00923
1.943,-0.00694,-0.00691,-0.00599,0.06823,0.00214,-9.75903,39.989,40.933,41.473,48.752,0.20519,-0.01047,-0.00928
1.953,-0.00676,-0.00731,-0.00608,-0.04888,-0.00109,-9.76486,39.989,40.933,41.473,48.421,0.09281,-0.00666,-0.00931
1.963,-0.00659,-0.00731,-0.00617,0.05200,0.00169,-9.79192,39.989,40.933,41.473,48.421,0.20535,-0.00844,-0.00936
1.973,-0.00632,-0.00718,-0.00608,-0.00167,-0.01333,-9.83512,39.989,40.933,41.473,48.531,0.10080,0.03337,-0.00930
1.983,-0.00614,-0.00705,-0.00572,0.02503,0.02675,-9.79569,40.043,40.933,41.473,48.642,0.12708,-0.07636,-0.00955
1.993,-0.00614,-0.00674,-0.00514,0.02032,-0.02393,-9.76533,40.043,40.933,41.473,48.531,0.12296,0.03606,-0.00934
2.003,-0.00619,-0.00625,-0.00461,0.04669,-0.02253,-9.80446,40.043,40.933,41.473,48.421,0.21810,0.09674,-0.00919
2.013,-0.00605,-0.00621,-0.00421,-0.01702,-0.02374,-9.79890,40.043,40.933,41.473,48.531,0.10592,0.11155,-0.00917
2.023,-0.00592,-0.00603,-0.00403,-0.03061,-0.01289,-9.76783,40.043,40.933,41.473,48.421,-0.00607,0.09741,-0.00920
2.033,-0.00578,-0.00607,-0.00416,-0.02829,0.02304,-9.77451,40.043,40.945,41.473,48.531,-0.06994,0.00451,-0.00916
2.043,-0.00582,-0.00603,-0.00438,-0.01413,-0.00639,-9.79804,40.043,40.945,41.473,48.421,-0.11064,0.10983,-0.00937
2.053,-0.00582,-0.00576,-0.00456,0.03425,-0.00934,-9.78182,40.043,40.945,41.473,48.421,0.00048,0.09012,-0.00936
2.063,-0.00573,-0.00567,-0.00479,-0.00698,-0.01884,-9.79692,40.043,40.945,41.473,48.531,-0.10125,0.13951,-0.00944
2.073,-0.00578,-0.00554,-0.00497,-0.00840,0.01191,-9.75496,40.043,40.945,41.473,48.531,-0.07420,0.03018,-0.00930
2.083,-0.00582,-0.00536,-0.00510,-0.00254,-0.00701,-9.77357,40.043,40.945,41.473,48.421,0.03640,0.05053,-0.00935
2.093,-0.00591,-0.00527,-0.00515,-0.03165,0.00267,-9.79067,40.043,40.945,41.473,48.642,-0.07159,0.01826,-0.00937
2.103,-0.00600,-0.00523,-0.00506,0.06881,-0.06526,-9.81240,40.043,40.945,41.473,48.200,0.01803,0.08693,-0.00944
2.113,-0.00604,-0.00514,-0.00510,0.00349,0.01923,-9.78314,40.043,40.945,41.473,48.421,0.01936,-0.02602,-0.00951
2.123,-0.00604,-0.00540,-0.00537,0.00822,-0.06734,-9.79038,40.043,40.945,41.473,48.421,0.02704,0.08668,-0.00950
2.133,-0.00604,-0.00580,-0.00568,0.04215,-0.01355,-9.81445,40.043,40.945,41.472,48.531,0.14014,0.08273,-0.00955
2.143,-0.00622,-0.00598,-0.00595,-0.00322,-0.00046,-9.76872,40.043,40.945,41.472,48.310,0.03926,0.03192,-0.00966
2.153,-0.00644,-0.00594,-0.00604,0.01947,-0.01519,-9.82117,40.043,40.945,41.472,48.421,0.12908,0.10041,-0.00960
2.163,-0.00653,-0.00589,-0.00604,-0.03403,-0.00662,-9.77944,40.043,40.945,41.472,48.421,0.01807,0.07954,-0.00967
2.173,-0.00644,-0.00602,-0.00599,-0.01862,-0.00021,-9.78552,40.043,40.945,41.472,48.421,-0.07810,0.02025,-0.00968
2.183,-0.00631,-0.00616,-0.00586,0.01128,-0.03845,-9.77740,40.042,40.945,41.472,48.421,-0.01325,0.11249,-0.00979
2.193,-0.00627,-0.00616,-0.00564,-0.00882,-0.04900,-9.78579,40.042,40.945,41.472,48.531,-0.03756,0.22265,-0.00989
2.203,-0.00627,-0.00625,-0.00532,0.02070,-0.01688,-9.79023,40.042,40.945,41.472,48.531,0.05143,0.15312,-0.00992
2.213,-0.00631,-0.00603,-0.00523,0.00364,-0.00557,-9.76757,40.042,40.945,41.472,48.421,0.02408,0.04376,-0.01003
2.223,-0.00627,-0.00598,-0.00519,0.02657,0.02476,-9.78565,40.042,40.945,41.472,48.421,0.08849,-0.04878,-0.01016
2.233,-0.00633,-0.00594,-0.00523,-0.00458,0.00757,-9.74535,40.042,40.908,41.472,48.421,-0.02366,-0.04469,-0.01018
2.243,-0.00642,-0.00620,-0.00528,0.03060,0.03192,-9.75227,40.042,40.908,41.472,48.421,0.06785,-0.10900,-0.01024
2.253,-0.00641,-0.00594,-0.00541,-0.01074,0.02178,-9.79914,40.042,40.908,41.472,48.531,-0.04338,-0.12466,-0.01028
2.263,-0.00637,-0.00571,-0.00559,-0.01386,0.01601,-9.79674,40.042,40.908,41.472,48.642,-0.13037,-0.05317,-0.01043
2.273,-0.00628,-0.00558,-0.00573,0.02867,-0.03214,-9.76581,40.042,40.908,41.472,48.421,-0.04307,0.01750,-0.01057
2.283,-0.00619,-0.00585,-0.00582,0.02205,0.03764,-9.80407,40.042,40.908,41.472,48.310,0.02304,-0.07388,-0.01060
2.293,-0.00624,-0.00603,-0.00573,-0.00358,0.01246,-9.80806,40.042,40.908,41.472,48.531,-0.09008,-0.07112,-0.01063
2.303,-0.00637,-0.00598,-0.00555,0.00088,0.00240,-9.81658,40.042,40.908,41.472,48.421,0.00701,-0.01290,-0.01071
2.313,-0.00646,-0.00594,-0.00541,0.01060,0.01428,-9.82140,40.042,40.908,41.472,48.531,0.07656,-0.10234,-0.01082
2.323,-0.00659,-0.00607,-0.00541,0.01559,0.01030,-9.80737,40.042,40.908,41.472,48.531,0.11344,0.00499,-0.01068
2.333,-0.00673,-0.00589,-0.00555,0.01297,0.00123,-9.75472,40.042,40.908,41.475,48.421,0.00603,-0.03017,-0.01074
2.343,-0.00681,-0.00602,-0.00568,0.00043,0.01807,-9.77509,40.042,40.908,41.475,48.421,0.00078,-0.14290,-0.01079
2.353,-0.00681,-0.00602,-0.00573,0.00906,0.00136,-9.77641,40.042,40.908,41.475,48.531,0.04149,-0.03787,-0.01078
2.363,-0.00686,-0.00611,-0.00577,-0.04027,0.01427,-9.76725,40.042,40.908,41.475,48.310,-0.06953,-0.05623,-0.01082
2.373,-0.00686,-0.00602,-0.00582,0.02783,0.03088,-9.77477,40.042,40.908,41.475,48.421,0.02950,-0.10941,-0.01083
2.383,-0.00699,-0.00638,-0.00577,0.00144,0.01158,-9.79683,40.042,40.908,41.475,48.421,-0.02146,-0.00891,-0.01087
2.393,-0.00708,-0.00660,-0.00564,0.05481,0.04179,-9.77929,40.042,40.908,41.475,48.531,0.07129,-0.07286,-0.01093
2.403,-0.00700,-0.00660,-0.00546,-0.01712,-0.04046,-9.77284,40.042,40.908,41.475,48.531,0.01673,0.02554,-0.01089
2.413,-0.00686,-0.00616,-0.00519,-0.00648,0.01502,-9.76622,40.042,40.908,41.475,48.642,-0.03206,-0.07570,-0.01091
2.423,-0.00664,-0.00611,-0.00519,-0.00974,0.00354,-9.78193,40.042,40.908,41.475,48.421,-0.07859,0.02659,-0.01103
2.433,-0.00654,-0.00629,-0.00541,-0.01211,-0.03036,-9.79936,40.042,40.923,41.475,48.310,-0.07281,0.13913,-0.01122
2.443,-0.00659,-0.00638,-0.00564,0.02799,0.04832,-9.78757,40.042,40.923,41.475,48.310,-0.01767,0.04069,-0.01118
2.453,-0.00663,-0.00643,-0.00577,0.01535,-0.00938,-9.81147,40.042,40.923,41.475,48.642,0.09441,0.05539,-0.01121
2.463,-0.00650,-0.00665,-0.00586,0.00276,0.05281,-9.77334,40.042,40.923,41.475,48.421,0.07071,-0.05502,-0.01141
2.473,-0.00636,-0.00669,-0.00586,-0.01395,-0.01515,-9.82904,40.042,40.923,41.475,48.421,-0.01147,0.02237,-0.01140
2.483,-0.00632,-0.00647,-0.00590,0.02546,-0.00105,-9.80064,40.042,40.923,41.475,48.531,0.10104,0.01093,-0.01145
2.493,-0.00614,-0.00643,-0.00577,0.01643,0.00667,-9.77201,40.042,40.923,41.475,48.421,0.09040,-0.10150,-0.01168
2.503,-0.00592,-0.00643,-0.00564,0.01817,0.02794,-9.78278,40.042,40.923,41.475,48.531,0.11858,-0.21082,-0.01191
2.513,-0.00574,-0.00629,-0.00537,-0.00333,-0.07813,-9.76463,40.042,40.923,41.475,48.421,0.09578,-0.10060,-0.01174
2.523,-0.00565,-0.00616,-0.00528,0.02720,-0.01692,-9.79750,40.042,40.923,41.475,48.310,0.12986,0.00693,-0.01155
2.533,-0.00570,-0.00603,-0.00541,0.02949,-0.02516,-9.77463,40.042,40.923,41.478,48.421,0.16278,0.11467,-0.01131
2.543,-0.00570,-0.00625,-0.00573,-0.05119,0.02393,-9.73780,40.042,40.923,41.478,48.531,0.06458,0.06059,-0.01146
2.553,-0.00578,-0.00625,-0.00595,-0.00590,-0.00435,-9.75384,40.042,40.923,41.478,48.421,-0.04085,0.02335,-0.01150
2.563,-0.00583,-0.00603,-0.00590,0.01517,0.00643,-9.80457,40.042,40.923,41.478,48.531,0.06073,-0.02449,-0.01155
2.573,-0.00592,-0.00616,-0.00586,0.03069,-0.02171,-9.77060,40.042,40.923,41.478,48.421,0.13000,0.06372,-0.01143
2.583,-0.00592,-0.00603,-0.00590,-0.00586,0.00265,-9.76588,40.046,40.923,41.478,48.642,0.02903,0.01500,-0.01154
2.593,-0.00596,-0.00598,-0.00595,0.00039,0.04782,-9.77576,40.046,40.923,41.478,48.531,0.01888,-0.09668,-0.01163
2.603,-0.00601,-0.00598,-0.00590,0.03599,-0.02796,-9.76985,40.046,40.923,41.478,48.310,0.08534,-0.00654,-0.01158
2.613,-0.00610,-0.00625,-0.00581,0.01269,-0.01605,-9.78013,40.046,40.923,41.478,48.642,0.07308,0.10490,-0.01146
2.623,-0.00632,-0.00656,-0.00586,0.03856,0.00461,-9.80389,40.046,40.923,41.478,48.421,0.15816,0.03117,-0.01165
2.633,-0.00655,-0.00651,-0.00608,0.00466,0.01762,-9.77069,40.046,40.894,41.478,48.531,0.07972,-0.04946,-0.01186
2.643,-0.00669,-0.00660,-0.00649,0.01058,-0.00020,-9.77643,40.046,40.894,41.478,48.310,0.04254,0.05659,-0.01179
2.653,-0.00677,-0.00660,-0.00671,-0.03278,0.00658,-9.79668,40.046,40.894,41.478,48.531,-0.06192,0.01418,-0.01183
2.663,-0.00682,-0.00656,-0.00657,0.07403,0.01770,-9.80121,40.046,40.894,41.478,48.421,0.04796,-0.01200,-0.01186
2.673,-0.00691,-0.00638,-0.00649,-0.00231,0.01779,-9.79156,40.046,40.894,41.478,48.421,-0.01488,-0.10607,-0.01193
2.683,-0.00695,-0.00611,-0.00635,-0.01281,-0.00230,-9.76345,40.046,40.894,41.478,48.531,-0.06569,-0.00548,-0.01204
2.693,-0.00695,-0.00593,-0.00617,-0.00882,0.04204,-9.75362,40.046,40.894,41.478,48.421,-0.05927,-0.11763,-0.01196
2.703,-0.00682,-0.00589,-0.00604,-0.00112,0.02125,-9.79155,40.046,40.894,41.478,48.421,0.05232,-0.13188,-0.01200
2.713,-0.00673,-0.00593,-0.00582,-0.00539,-0.04980,-9.78983,40.046,40.894,41.478,48.531,0.03039,-0.02139,-0.01196
2.723,-0.00660,-0.00589,-0.00568,-0.01984,0.03587,-9.81672,40.046,40.894,41.478,48.531,-0.03896,-0.11055,-0.01199
2.733,-0.00655,-0.00594,-0.00568,0.01117,0.02541,-9.80446,40.046,40.894,41.478,48.642,0.06738,-0.14931,-0.01203
2.743,-0.00651,-0.00589,-0.00573,0.02087,0.01064,-9.71854,40.046,40.894,41.478,48.642,0.12803,-0.05498,-0.01190
2.753,-0.00642,-0.00558,-0.00577,0.03015,0.03946,-9.80048,40.046,40.894,41.478,48.531,0.15778,-0.16358,-0.01221
2.763,-0.00637,-0.00567,-0.00568,-0.00232,-0.01033,-9.81259,40.046,40.894,41.478,48.531,0.08915,-0.07398,-0.01205
2.773,-0.00637,-0.00567,-0.00568,-0.00225,0.02476,-9.79636,40.046,40.894,41.478,48.531,-0.00384,-0.13838,-0.01213
2.783,-0.00646,-0.00589,-0.00564,-0.02014,0.00018,-9.78189,40.042,40.894,41.478,48.421,-0.07609,-0.05152,-0.01222
2.793,-0.00660,-0.00620,-0.00568,-0.00602,-0.00459,-9.78923,40.042,40.894,41.478,48.531,-0.02386,0.04867,-0.01234
2.803,-0.00682,-0.00656,-0.00577,0.03516,0.02605,-9.74749,40.042,40.894,41.478,48.421,0.06072,-0.02544,-0.01240
2.813,-0.00700,-0.00700,-0.00604,0.03089,0.02694,-9.76516,40.042,40.894,41.478,48.421,0.13616,-0.10858,-0.01258
2.823,-0.00713,-0.00736,-0.00644,0.02560,0.00700,-9.78573,40.042,40.894,41.478,48.642,0.15847,0.00154,-0.01233
2.833,-0.00731,-0.00736,-0.00666,0.03803,0.02351,-9.79657,40.042,40.897,41.478,48.531,0.20552,-0.10088,-0.01272
2.843,-0.00749,-0.00762,-0.00675,0.01412,-0.02652,-9.77536,40.042,40.897,41.478,48.310,0.15683,0.00061,-0.01244
2.853,-0.00767,-0.00771,-0.00689,-0.03001,0.01663,-9.80589,40.042,40.897,41.478,48.531,0.04840,-0.03134,-0.01254
2.863,-0.00780,-0.00767,-0.00702,-0.04056,-0.00770,-9.77941,40.042,40.897,41.478,48.642,-0.06070,-0.00224,-0.01258
2.873,-0.00802,-0.00798,-0.00706,0.02789,-0.02937,-9.77866,40.042,40.897,41.478,48.421,0.02827,0.06697,-0.01265
2.883,-0.00820,-0.00811,-0.00715,-0.02412,-0.01487,-9.77349,40.042,40.897,41.478,48.421,-0.08364,0.08024,-0.01271
2.893,-0.00847,-0.00807,-0.00738,0.01625,0.03464,-9.80807,40.042,40.897,41.478,48.421,-0.02332,-0.01535,-0.01267
2.903,-0.00874,-0.00820,-0.00756,0.01637,-0.02452,-9.79707,40.042,40.897,41.478,48.421,0.04452,0.07514,-0.01269
2.913,-0.00896,-0.00829,-0.00787,0.00330,-0.01376,-9.83958,40.042,40.897,41.478,48.421,-0.06636,0.09693,-0.01276
2.923,-0.00914,-0.00811,-0.00814,0.01435,0.00141,-9.80177,40.042,40.897,41.478,48.421,0.02634,0.03196,-0.01280
2.933,-0.00922,-0.00788,-0.00805,-0.00924,-0.01573,-9.79569,40.042,40.897,41.476,48.531,-0.06450,0.09970,-0.01287
2.943,-0.00922,-0.00748,-0.00783,0.04690,0.02414,-9.78697,40.042,40.897,41.476,48.531,0.02777,0.03401,-0.01290
2.953,-0.00905,-0.00735,-0.00742,-0.00369,0.01995,-9.75013,40.042,40.897,41.476,48.531,-0.00728,-0.07315,-0.01297
2.963,-0.00882,-0.00726,-0.00702,0.00314,0.00322,-9.83347,40.042,40.897,41.476,48.642,0.04057,0.02875,-0.01299
2.973,-0.00856,-0.00682,-0.00684,0.00572,0.01968,-9.80567,40.042,40.897,41.476,48.531,0.03493,-0.08419,-0.01311
2.983,-0.00838,-0.00669,-0.00658,0.01515,0.00410,-9.80056,40.039,40.897,41.476,48.421,0.11021,0.00032,-0.01304
2.993,-0.00833,-0.00642,-0.00631,-0.02077,-0.02615,-9.76592,40.039,40.897,41.476,48.642,0.01594,0.06242,-0.01301
3.003,-0.00833,-0.00593,-0.00617,0.02325,-0.00664,-9.75079,40.039,40.897,41.476,48.531,0.12624,0.04097,-0.01308
3.013,-0.00824,-0.00575,-0.00586,0.02115,-0.01421,-9.78097,40.039,40.897,41.476,48.421,0.11994,0.15318,-0.01287
3.023,-0.00793,-0.00540,-0.00541,0.00827,0.00297,-9.78967,40.039,40.897,41.476,48.531,0.07636,0.04929,-0.01307
3.033,-0.00754,-0.00522,-0.00474,-0.01418,-0.01416,-9.78601,40.039,40.869,41.476,48.531,-0.03392,0.07252,-0.01309
3.043,-0.00714,-0.00487,-0.00389,-0.01792,0.03035,-9.79585,40.039,40.869,41.476,48.310,-0.06473,-0.03614,-0.01301
3.053,-0.00670,-0.00474,-0.00318,0.01699,-0.00679,-9.78856,40.039,40.869,41.476,48.421,0.03778,0.01123,-0.01303
3.063,-0.00643,-0.00474,-0.00291,0.03380,0.02045,-9.79013,40.039,40.869,41.476,48.421,0.12525,-0.06036,-0.01313
3.073,-0.00630,-0.00501,-0.00287,0.00189,0.01502,-9.78798,40.039,40.869,41.476,48.642,0.01533,-0.08690,-0.01316
3.083,-0.00625,-0.00518,-0.00318,0.06586,-0.02900,-9.78851,40.039,40.869,41.476,48.421,0.10823,-0.02249,-0.01310
3.093,-0.00634,-0.00549,-0.00362,-0.01208,0.03370,-9.78179,40.039,40.869,41.476,48.421,0.02739,-0.10151,-0.01320
3.103,-0.00652,-0.00572,-0.00389,-0.00075,0.02087,-9.79437,40.039,40.869,41.476,48.310,-0.06761,-0.16303,-0.01320
3.113,-0.00657,-0.00576,-0.00412,-0.00308,0.00642,-9.75060,40.039,40.869,41.476,48.421,-0.02625,-0.05836,-0.01330
3.123,-0.00643,-0.00589,-0.00430,0.02223,0.00850,-9.76560,40.039,40.869,41.476,48.310,0.08591,-0.05233,-0.01332
3.133,-0.00612,-0.00598,-0.00434,0.02401,0.03718,-9.79161,40.039,40.869,41.478,48.642,0.12119,-0.15925,-0.01353
3.143,-0.00585,-0.00598,-0.00452,-0.01398,-0.03432,-9.77122,40.039,40.869,41.478,48.421,0.06595,-0.06132,-0.01339
3.153,-0.00558,-0.00621,-0.00456,-0.01631,-0.03112,-9.79090,40.039,40.869,41.478,48.531,0.00368,0.03252,-0.01335
3.163,-0.00541,-0.00625,-0.00488,-0.00172,-0.03678,-9.77049,40.039,40.869,41.478,48.531,-0.00479,0.14465,-0.01338
3.173,-0.00527,-0.00656,-0.00537,0.01017,-0.01624,-9.72825,40.039,40.869,41.478,48.531,0.08422,0.07714,-0.01345
3.183,-0.00531,-0.00661,-0.00604,0.01170,-0.00213,-9.78006,40.021,40.869,41.478,48.531,0.05777,-0.03162,-0.01362
3.193,-0.00522,-0.00629,-0.00653,0.00542,-0.01325,-9.78289,40.021,40.869,41.478,48.421,0.03174,0.07738,-0.01358
3.203,-0.00513,-0.00634,-0.00680,-0.01563,-0.02591,-9.83671,40.021,40.869,41.478,48.642,-0.06448,0.13497,-0.01363
3.213,-0.00509,-0.00620,-0.00680,0.00025,-0.03727,-9.75281,40.021,40.869,41.478,48.421,0.00454,0.22288,-0.01372
3.223,-0.00500,-0.00594,-0.00671,0.01726,-0.08447,-9.78327,40.021,40.869,41.478,48.642,0.04199,0.32841,-0.01372
3.233,-0.00494,-0.00620,-0.00657,0.01825,-0.00892,-9.74595,40.021,40.922,41.478,48.531,0.06766,0.21978,-0.01386
3.243,-0.00503,-0.00661,-0.00648,0.01909,0.03322,-9.75542,40.021,40.922,41.478,48.531,0.07951,0.10896,-0.01404
3.253,-0.00525,-0.00687,-0.00635,-0.01435,0.00086,-9.77589,40.021,40.922,41.478,48.421,-0.01210,0.04514,-0.01412
3.263,-0.00543,-0.00687,-0.00639,-0.00264,0.00281,-9.72086,40.021,40.922,41.478,48.642,-0.01831,-0.06564,-0.01413
3.273,-0.00556,-0.00696,-0.00657,-0.00413,0.00601,-9.83462,40.021,40.922,41.478,48.421,-0.03880,0.04367,-0.01422
3.283,-0.00569,-0.00709,-0.00702,0.00340,0.01189,-9.78398,40.021,40.922,41.478,48.421,0.01248,-0.05540,-0.01424
3.293,-0.00583,-0.00718,-0.00720,0.00940,0.00377,-9.79852,40.021,40.922,41.478,48.421,0.10055,0.01378,-0.01422
3.303,-0.00601,-0.00691,-0.00720,0.01622,-0.00365,-9.79939,40.021,40.922,41.478,48.531,0.03267,0.10341,-0.01417
3.313,-0.00610,-0.00700,-0.00689,-0.00557,0.00082,-9.78920,40.021,40.922,41.478,48.421,-0.02555,0.00698,-0.01420
3.323,-0.00605,-0.00732,-0.00662,-0.04406,-0.04749,-9.77072,40.021,40.922,41.478,48.531,-0.09879,0.09230,-0.01434
3.333,-0.00605,-0.00736,-0.00653,0.01786,0.00404,-9.79454,40.021,40.922,41.472,48.310,-0.00095,0.03645,-0.01433
3.343,-0.00619,-0.00736,-0.00653,0.00396,0.03244,-9.80198,40.021,40.922,41.472,48.421,0.01099,-0.07594,-0.01437
3.353,-0.00632,-0.00749,-0.00657,-0.01040,0.01046,-9.77346,40.021,40.922,41.472,48.531,-0.09961,-0.05355,-0.01444
3.363,-0.00636,-0.00727,-0.00666,0.05905,0.00848,-9.77222,40.021,40.922,41.472,48.642,0.01299,-0.05262,-0.01447
3.373,-0.00636,-0.00691,-0.00662,-0.04417,0.04292,-9.77113,40.021,40.922,41.472,48.310,-0.07783,-0.11908,-0.01448
3.383,-0.00623,-0.00669,-0.00657,-0.01042,-0.01489,-9.80815,39.998,40.922,41.472,48.421,-0.06861,-0.00660,-0.01467
3.393,-0.00614,-0.00669,-0.00631,0.02779,-0.00739,-9.76931,39.998,40.922,41.472,48.531,0.04148,0.01711,-0.01470
3.403,-0.00619,-0.00656,-0.00590,-0.00599,-0.01560,-9.74344,39.998,40.922,41.472,48.421,-0.03892,0.09523,-0.01473
3.413,-0.00628,-0.00634,-0.00559,-0.01619,0.01136,-9.78669,39.998,40.922,41.472,48.310,-0.07561,-0.01094,-0.01465
3.423,-0.00627,-0.00589,-0.00550,-0.01883,-0.05277,-9.78093,39.998,40.922,41.472,48.531,-0.08774,0.10073,-0.01484
3.433,-0.00609,-0.00576,-0.00546,0.00618,-0.01404,-9.78169,39.998,40.950,41.472,48.531,0.02342,0.08409,-0.01485
3.443,-0.00591,-0.00576,-0.00555,-0.01882,0.04023,-9.75358,39.998,40.950,41.472,48.642,-0.01983,-0.01932,-0.01488
3.453,-0.00586,-0.00576,-0.00546,0.01055,0.00532,-9.80294,39.998,40.950,41.472,48.531,0.09150,-0.03542,-0.01493
3.463,-0.00586,-0.00549,-0.00506,0.01536,0.04843,-9.77785,39.998,40.950,41.472,48.531,0.09079,-0.14793,-0.01512
3.473,-0.00573,-0.00514,-0.00456,0.02238,-0.03737,-9.79073,39.998,40.950,41.472,48.531,0.10305,-0.03596,-0.01495
3.483,-0.00555,-0.00487,-0.00412,0.00973,0.03745,-9.81526,39.998,40.950,41.472,48.642,0.07532,-0.14545,-0.01514
3.493,-0.00537,-0.00460,-0.00376,0.00132,-0.01101,-9.75150,39.998,40.950,41.472,48.531,0.04091,-0.03844,-0.01504
3.503,-0.00524,-0.00456,-0.00363,-0.01618,0.00978,-9.77785,39.998,40.950,41.472,48.531,-0.07045,-0.05393,-0.01504
3.513,-0.00511,-0.00447,-0.00376,-0.00181,-0.00266,-9.79929,39.998,40.950,41.472,48.531,0.00312,0.03146,-0.01510
3.523,-0.00520,-0.00474,-0.00412,0.03264,-0.01276,-9.79188,39.998,40.950,41.472,48.531,0.11311,0.05674,-0.01509
3.533,-0.00533,-0.00500,-0.00456,0.04335,-0.00813,-9.81966,39.998,40.950,41.474,48.421,0.22586,0.04923,-0.01513
3.543,-0.00546,-0.00518,-0.00474,0.02309,-0.00133,-9.81831,39.998,40.950,41.474,48.531,0.12285,0.00235,-0.01529
3.553,-0.00564,-0.00545,-0.00456,-0.01092,-0.06364,-9.78946,39.998,40.950,41.474,48.752,0.07184,0.10336,-0.01514
3.563,-0.00587,-0.00567,-0.00425,0.02509,0.03255,-9.79687,39.998,40.950,41.474,48.642,0.09981,-0.00646,-0.01532
3.573,-0.00605,-0.00585,-0.00403,-0.01713,-0.00487,-9.78233,39.998,40.950,41.474,48.531,-0.01172,0.01301,-0.01532
3.583,-0.00627,-0.00576,-0.00407,-0.01072,0.01588,-9.77464,40.005,40.950,41.474,48.421,-0.06079,-0.08880,-0.01527
3.593,-0.00645,-0.00589,-0.00434,0.03094,0.00894,-9.80223,40.005,40.950,41.474,48.310,0.05114,-0.07190,-0.01528
3.603,-0.00667,-0.00634,-0.00474,-0.02081,0.00908,-9.78266,40.005,40.950,41.474,48.642,-0.06137,-0.05976,-0.01530
3.613,-0.00689,-0.00651,-0.00523,0.01589,0.01814,-9.74260,40.005,40.950,41.474,48.421,0.04624,-0.09242,-0.01532
3.623,-0.00707,-0.00678,-0.00572,-0.00280,-0.02196,-9.80098,40.005,40.950,41.474,48.531,0.01542,0.01607,-0.01529
3.633,-0.00720,-0.00687,-0.00608,0.02357,0.00128,-9.79860,40.005,40.951,41.474,48.421,0.12638,-0.00535,-0.01535
3.643,-0.00729,-0.00705,-0.00613,0.05437,-0.05703,-9.79822,40.005,40.951,41.474,48.531,0.18206,0.09318,-0.01512
3.653,-0.00725,-0.00687,-0.00586,-0.01516,0.00406,-9.80000,40.005,40.951,41.474,48.531,0.07793,0.04817,-0.01525
3.663,-0.00716,-0.00669,-0.00550,0.00788,-0.00369,-9.76638,40.005,40.951,41.474,48.421,-0.00874,-0.02444,-0.01532
3.673,-0.00703,-0.00669,-0.00523,-0.00374,-0.01047,-9.77519,40.005,40.951,41.474,48.642,-0.02589,0.08707,-0.01539
3.683,-0.00689,-0.00674,-0.00537,0.02411,0.03941,-9.76989,40.005,40.951,41.474,48.531,0.02649,-0.01267,-0.01541
3.693,-0.00680,-0.00674,-0.00586,0.01590,0.03224,-9.78878,40.005,40.951,41.474,48.642,0.06635,-0.11817,-0.01552
3.703,-0.00675,-0.00665,-0.00622,0.01530,-0.01873,-9.79382,40.005,40.951,41.474,48.310,0.07773,-0.00586,-0.01541
3.713,-0.00662,-0.00669,-0.00644,-0.01745,-0.03268,-9.78286,40.005,40.951,41.474,48.531,0.00161,0.07752,-0.01539
3.723,-0.00644,-0.00660,-0.00644,0.03539,-0.01641,-9.75894,40.005,40.951,41.474,48.531,0.11363,0.08771,-0.01541
3.733,-0.00626,-0.00642,-0.00622,0.01262,0.02158,-9.81655,40.005,40.951,41.471,48.642,0.09285,-0.02317,-0.01565
3.743,-0.00604,-0.00629,-0.00590,0.02113,0.04677,-9.76824,40.005,40.951,41.471,48.421,0.10664,-0.13490,-0.01587
3.753,-0.00591,-0.00603,-0.00546,0.02143,-0.02114,-9.78783,40.005,40.951,41.471,48.752,0.11478,-0.02255,-0.01569
3.763,-0.00573,-0.00572,-0.00497,-0.04227,-0.02784,-9.76220,40.005,40.951,41.471,48.752,0.01473,0.02868,-0.01565
3.773,-0.00555,-0.00567,-0.00461,-0.00117,0.01464,-9.78273,40.005,40.951,41.471,48.310,-0.00613,-0.08185,-0.01567
3.783,-0.00546,-0.00585,-0.00488,-0.00499,-0.04591,-9.79705,40.026,40.951,41.471,48.421,-0.01355,0.03062,-0.01571
3.793,-0.00546,-0.00585,-0.00514,0.00355,-0.00388,-9.80093,40.026,40.951,41.471,48.421,0.09653,0.00509,-0.01574
3.803,-0.00560,-0.00594,-0.00528,0.01998,-0.01458,-9.78297,40.026,40.951,41.471,48.642,0.12447,0.11452,-0.01556
3.813,-0.00564,-0.00589,-0.00514,0.00432,0.05510,-9.77173,40.026,40.951,41.471,48.531,0.09953,0.00452,-0.01581
3.823,-0.00564,-0.00581,-0.00492,0.01093,-0.03967,-9.76333,40.026,40.951,41.471,48.752,0.08228,0.11564,-0.01565
3.833,-0.00555,-0.00567,-0.00479,0.04533,0.00618,-9.73598,40.026,40.954,41.471,48.310,0.16858,0.04450,-0.01582
3.843,-0.00555,-0.00572,-0.00461,0.00922,-0.01678,-9.78132,40.026,40.954,41.471,48.531,0.06716,0.09207,-0.01574
3.853,-0.00569,-0.00589,-0.00465,0.00290,0.03625,-9.78789,40.026,40.954,41.471,48.531,0.04888,-0.01870,-0.01586
3.863,-0.00582,-0.00585,-0.00497,0.01821,-0.02718,-9.81277,40.026,40.954,41.471,48.642,0.08353,0.08842,-0.01576
3.873,-0.00595,-0.00594,-0.00519,0.03552,0.00303,-9.78821,40.026,40.954,41.471,48.421,0.16925,0.01522,-0.01595
3.883,-0.00600,-0.00612,-0.00541,0.02364,-0.00468,-9.75722,40.026,40.954,41.471,48.531,0.06504,0.05726,-0.01588
3.893,-0.00609,-0.00647,-0.00568,0.01897,0.05406,-9.74889,40.026,40.954,41.471,48.421,0.07877,-0.05386,-0.01605
3.903,-0.00622,-0.00647,-0.00581,0.03301,0.01264,-9.76925,40.026,40.954,41.471,48.531,0.18893,-0.07334,-0.01612
3.913,-0.00626,-0.00634,-0.00568,0.00328,0.00421,-9.79406,40.026,40.954,41.471,48.421,0.08102,-0.04241,-0.01608
3.923,-0.00626,-0.00629,-0.00559,0.06308,0.05867,-9.77404,40.026,40.954,41.471,48.642,0.15861,-0.12348,-0.01628
3.933,-0.00617,-0.00625,-0.00564,0.06027,-0.00564,-9.81773,40.026,40.954,41.472,48.421,0.24603,-0.05270,-0.01606
3.943,-0.00613,-0.00629,-0.00586,0.00654,0.02392,-9.80606,40.026,40.954,41.472,48.531,0.14185,-0.09637,-0.01623
3.953,-0.00622,-0.00638,-0.00595,0.04409,0.02041,-9.81109,40.026,40.954,41.472,48.531,0.25286,-0.11832,-0.01633
3.963,-0.00617,-0.00634,-0.00582,-0.03031,0.00554,-9.74121,40.026,40.954,41.472,48.531,0.14250,-0.09641,-0.01629
3.973,-0.00604,-0.00625,-0.00559,0.00788,0.02758,-9.76061,40.026,40.954,41.472,48.531,0.04970,-0.15957,-0.01642
3.983,-0.00595,-0.00607,-0.00541,-0.01518,0.05799,-9.75996,40.043,40.954,41.472,48.421,-0.01851,-0.24843,-0.01647
3.993,-0.00595,-0.00598,-0.00523,0.00680,0.00878,-9.78924,40.043,40.954,41.472,48.421,0.01332,-0.14083,-0.01649
4.003,-0.00600,-0.00598,-0.00514,0.03211,-0.02040,-9.81121,40.043,40.954,41.472,48.531,0.07599,-0.04728,-0.01644
4.013,-0.00600,-0.00603,-0.00523,-0.01737,-0.02181,-9.79728,40.043,40.954,41.472,48.531,-0.00448,0.03188,-0.01642
4.023,-0.00591,-0.00589,-0.00532,0.02447,-0.01605,-9.81396,40.043,40.954,41.472,48.531,0.09980,0.07561,-0.01640
4.033,-0.00587,-0.00580,-0.00550,-0.02700,-0.03224,-9.77074,40.043,40.922,41.472,48.421,-0.00355,0.12099,-0.01639
4.043,-0.00587,-0.00585,-0.00555,-0.00562,0.02548,-9.77422,40.043,40.922,41.472,48.310,-0.01576,0.00891,-0.01639
4.053,-0.00592,-0.00580,-0.00555,0.02248,0.03327,-9.77715,40.043,40.922,41.472,48.310,0.05023,-0.08238,-0.01644
4.063,-0.00601,-0.00545,-0.00532,-0.02399,-0.00054,-9.78268,40.043,40.922,41.472,48.421,-0.05259,-0.03630,-0.01647
4.073,-0.00601,-0.00540,-0.00501,0.04301,0.01328,-9.76448,40.043,40.922,41.472,48.531,0.05877,-0.05151,-0.01650
4.083,-0.00583,-0.00540,-0.00479,-0.00160,0.00883,-9.77673,40.043,40.922,41.472,48.310,-0.05364,-0.05192,-0.01651
4.093,-0.00587,-0.00563,-0.00474,0.00807,-0.02069,-9.76565,40.043,40.922,41.472,48.310,0.00284,0.04501,-0.01657
4.103,-0.00592,-0.00572,-0.00488,0.00604,-0.00101,-9.75389,40.043,40.922,41.472,48.421,0.07456,-0.04088,-0.01665
4.113,-0.00596,-0.00563,-0.00497,0.01686,0.00935,-9.76838,40.043,40.922,41.472,48.310,0.17152,-0.09662,-0.01678
4.123,-0.00601,-0.00589,-0.00510,0.01585,-0.03375,-9.80716,40.043,40.922,41.472,48.752,0.14233,0.01189,-0.01651
4.133,-0.00605,-0.00589,-0.00528,-0.03100,-0.03669,-9.80291,40.043,40.922,41.471,48.531,0.04672,0.07171,-0.01643
4.143,-0.00610,-0.00585,-0.00546,-0.01475,0.01381,-9.82328,40.043,40.922,41.471,48.421,-0.02746,-0.01341,-0.01646
4.153,-0.00614,-0.00580,-0.00564,0.03312,-0.01289,-9.76253,40.043,40.922,41.471,48.531,0.07697,0.02849,-0.01647
4.163,-0.00614,-0.00589,-0.00559,-0.04562,-0.00717,-9.80069,40.043,40.922,41.471,48.310,-0.03584,0.03286,-0.01649
4.173,-0.00605,-0.00567,-0.00537,-0.01251,0.02515,-9.76775,40.043,40.922,41.471,48.531,-0.05882,-0.07742,-0.01642
4.183,-0.00596,-0.00563,-0.00497,0.00631,0.02882,-9.77507,40.043,40.922,41.471,48.642,0.02255,-0.15516,-0.01642
4.193,-0.00583,-0.00589,-0.00488,-0.00351,0.01001,-9.77671,40.043,40.922,41.471,48.531,-0.02334,-0.05247,-0.01645
4.203,-0.00588,-0.00607,-0.00506,-0.00407,-0.00425,-9.78280,40.043,40.922,41.471,48.421,-0.02412,0.06005,-0.01651
4.213,-0.00605,-0.00607,-0.00532,0.01760,-0.02150,-9.78460,40.043,40.922,41.471,48.531,0.07585,0.11180,-0.01651
4.223,-0.00605,-0.00594,-0.00559,-0.00527,-0.00143,-9.80691,40.043,40.922,41.471,48.531,-0.00529,0.03311,-0.01658
4.233,-0.00615,-0.00589,-0.00586,0.03183,0.01622,-9.78974,40.043,40.908,41.471,48.421,0.08869,-0.02973,-0.01665
4.243,-0.00628,-0.00607,-0.00608,0.00466,0.00390,-9.72331,40.043,40.908,41.471,48.421,-0.02279,-0.01743,-0.01667
4.253,-0.00641,-0.00616,-0.00608,0.03023,0.03740,-9.76953,40.043,40.908,41.471,48.642,0.05606,-0.09707,-0.01672
4.263,-0.00646,-0.00589,-0.00582,0.00904,-0.00018,-9.77602,40.043,40.908,41.471,48.421,0.05255,0.01495,-0.01665
4.273,-0.00655,-0.00589,-0.00541,0.02946,0.00026,-9.75481,40.043,40.908,41.471,48.531,0.16332,-0.00022,-0.01669
4.283,-0.00664,-0.00607,-0.00506,0.03255,0.04127,-9.77717,40.043,40.908,41.471,48.421,0.17591,-0.11147,-0.01705
4.293,-0.00673,-0.00629,-0.00514,0.01488,-0.01868,-9.80387,40.043,40.908,41.471,48.421,0.13385,-0.00723,-0.01678
4.303,-0.00691,-0.00660,-0.00550,-0.01489,-0.00913,-9.78759,40.043,40.908,41.471,48.531,0.02528,0.02252,-0.01677
4.313,-0.00713,-0.00682,-0.00608,0.00005,-0.00770,-9.80053,40.043,40.908,41.471,48.531,-0.05861,0.09803,-0.01682
4.323,-0.00735,-0.00700,-0.00640,0.00574,0.00397,-9.74422,40.043,40.908,41.471,48.642,0.00935,0.00865,-0.01681
4.333,-0.00748,-0.00691,-0.00653,0.02673,-0.02700,-9.78749,40.043,40.908,41.472,48.310,0.08822,0.08873,-0.01679
4.343,-0.00744,-0.00687,-0.00649,0.00908,0.00722,-9.79126,40.043,40.908,41.472,48.531,0.05904,-0.02011,-0.01695
4.353,-0.00753,-0.00664,-0.00635,0.00852,-0.01608,-9.76201,40.043,40.908,41.472,48.421,0.05019,0.09186,-0.01688
4.363,-0.00744,-0.00656,-0.00617,-0.04085,0.03365,-9.78003,40.043,40.908,41.472,48.421,-0.02939,0.01243,-0.01692
4.373,-0.00731,-0.00656,-0.00608,-0.02225,-0.04453,-9.80098,40.043,40.908,41.472,48.421,-0.07186,0.11685,-0.01704
4.383,-0.00713,-0.00642,-0.00608,0.01168,-0.03965,-9.77017,40.046,40.908,41.472,48.421,0.01498,0.18840,-0.01710
4.393,-0.00704,-0.00682,-0.00613,0.01565,0.00590,-9.77241,40.046,40.908,41.472,48.421,0.05155,0.08205,-0.01720
4.403,-0.00699,-0.00705,-0.00617,0.05343,-0.04201,-9.78528,40.046,40.908,41.472,48.421,0.14686,0.14182,-0.01712
4.413,-0.00695,-0.00683,-0.00613,-0.03099,-0.02572,-9.84025,40.046,40.908,41.472,48.531,0.03442,0.14451,-0.01715
4.423,-0.00691,-0.00665,-0.00590,-0.02962,-0.01190,-9.82251,40.046,40.908,41.472,48.421,-0.07150,0.10610,-0.01716
4.433,-0.00682,-0.00665,-0.00564,0.00335,0.05028,-9.81678,40.046,40.906,41.472,48.421,-0.04645,-0.00397,-0.01707
4.443,-0.00668,-0.00652,-0.00541,0.02748,0.00037,-9.77531,40.046,40.906,41.472,48.421,0.06625,-0.00301,-0.01710
4.453,-0.00659,-0.00634,-0.00546,-0.00410,-0.00109,-9.80048,40.046,40.906,41.472,48.421,-0.04618,0.00863,-0.01711
4.463,-0.00655,-0.00647,-0.00555,0.04492,-0.01839,-9.77267,40.046,40.906,41.472,48.531,0.06122,0.04303,-0.01714
4.473,-0.00655,-0.00656,-0.00559,0.02051,-0.03545,-9.78186,40.046,40.906,41.472,48.531,0.09921,0.14919,-0.01701
4.483,-0.00651,-0.00687,-0.00559,-0.00730,0.02215,-9.80599,40.046,40.906,41.472,48.421,0.04785,0.04834,-0.01716
4.493,-0.00655,-0.00660,-0.00546,-0.02627,-0.01387,-9.73006,40.046,40.906,41.472,48.531,-0.06298,0.06655,-0.01719
4.503,-0.00655,-0.00634,-0.00532,0.02504,-0.02795,-9.83251,40.046,40.906,41.472,48.310,0.03901,0.11357,-0.01722
4.513,-0.00655,-0.00638,-0.00519,0.00810,-0.04611,-9.78506,40.046,40.906,41.472,48.310,0.04503,0.22585,-0.01715
4.523,-0.00655,-0.00629,-0.00546,0.01112,-0.00501,-9.82792,40.046,40.906,41.472,48.421,0.05628,0.11383,-0.01728
4.533,-0.00650,-0.00616,-0.00586,0.01264,-0.01129,-9.81067,40.046,40.906,41.473,48.310,0.09506,0.00777,-0.01744
4.543,-0.00659,-0.00629,-0.00622,-0.00359,0.00542,-9.78718,40.046,40.906,41.473,48.421,-0.01189,-0.02863,-0.01750
4.553,-0.00668,-0.00629,-0.00635,0.04643,0.02113,-9.80427,40.046,40.906,41.473,48.531,0.09546,-0.06462,-0.01755
4.563,-0.00672,-0.00607,-0.00653,0.01810,-0.01656,-9.76568,40.046,40.906,41.473,48.421,0.10291,0.04799,-0.01739
4.573,-0.00677,-0.00607,-0.00671,-0.05244,-0.01885,-9.85137,40.046,40.906,41.473,48.421,-0.00840,0.06478,-0.01741
4.583,-0.00686,-0.00611,-0.00671,0.08139,0.01360,-9.76508,40.044,40.906,41.473,48.421,0.09925,0.03272,-0.01747
4.593,-0.00695,-0.00616,-0.00662,-0.01077,-0.01533,-9.79448,40.044,40.906,41.473,48.421,-0.00702,0.06998,-0.01747
4.603,-0.00704,-0.00611,-0.00653,0.00913,0.06655,-9.75040,40.044,40.906,41.473,48.642,0.00760,-0.04124,-0.01750
4.613,-0.00704,-0.00593,-0.00653,0.04289,0.01186,-9.79625,40.044,40.906,41.473,48.642,0.11931,-0.05420,-0.01755
4.623,-0.00704,-0.00642,-0.00666,0.03089,0.00155,-9.79020,40.044,40.906,41.473,48.310,0.21009,0.01242,-0.01740
4.633,-0.00695,-0.00660,-0.00649,0.02792,0.02616,-9.84637,40.044,40.902,41.473,48.310,0.17883,-0.09561,-0.01780
4.643,-0.00682,-0.00669,-0.00622,0.01430,-0.01421,-9.76324,40.044,40.902,41.473,48.421,0.12623,0.00349,-0.01755
4.653,-0.00677,-0.00665,-0.00595,-0.04738,-0.02881,-9.79273,40.044,40.902,41.473,48.421,0.02211,0.04606,-0.01753
4.663,-0.00677,-0.00647,-0.00577,0.01100,-0.05063,-9.82128,40.044,40.902,41.473,48.531,0.04082,0.15712,-0.01749
4.673,-0.00668,-0.00647,-0.00568,-0.00430,0.01515,-9.80202,40.044,40.902,41.473,48.421,0.01151,0.04798,-0.01756
4.683,-0.00664,-0.00643,-0.00564,0.01193,0.01953,-9.78560,40.044,40.902,41.473,48.421,0.04969,-0.05837,-0.01764
4.693,-0.00660,-0.00656,-0.00546,0.00137,0.00264,-9.78401,40.044,40.902,41.473,48.421,-0.02902,0.02265,-0.01765
4.703,-0.00655,-0.00656,-0.00510,0.00837,-0.01980,-9.79460,40.044,40.902,41.473,48.642,0.04354,0.10935,-0.01766
4.713,-0.00638,-0.00656,-0.00479,-0.02837,-0.01754,-9.77067,40.044,40.902,41.473,48.421,-0.06928,0.10583,-0.01766
4.723,-0.00624,-0.00638,-0.00447,0.01755,0.01571,-9.81419,40.044,40.902,41.473,48.421,0.00487,0.02046,-0.01764
4.733,-0.00606,-0.00625,-0.00447,0.01489,0.03677,-9.76141,40.044,40.902,41.477,48.421,0.04201,-0.08595,-0.01768
4.743,-0.00593,-0.00625,-0.00465,-0.01387,-0.00153,-9.85270,40.044,40.902,41.477,48.531,-0.04692,-0.01724,-0.01770
4.753,-0.00579,-0.00598,-0.00465,0.00181,0.00532,-9.77917,40.044,40.902,41.477,48.421,0.06229,-0.04375,-0.01772
4.763,-0.00579,-0.00598,-0.00479,0.01513,-0.06625,-9.79403,40.044,40.902,41.477,48.421,0.06910,0.06867,-0.01760
4.773,-0.00579,-0.00581,-0.00497,-0.03005,0.01276,-9.80471,40.044,40.902,41.477,48.421,-0.02844,0.01157,-0.01764
4.783,-0.00579,-0.00594,-0.00492,-0.01661,0.04425,-9.79780,40.043,40.902,41.477,48.531,-0.05634,-0.09815,-0.01758
4.793,-0.00579,-0.00616,-0.00483,0.02486,-0.01566,-9.81477,40.043,40.902,41.477,48.421,0.02617,-0.02049,-0.01761
4.803,-0.00584,-0.00630,-0.00470,0.00168,0.03048,-9.78871,40.043,40.902,41.477,48.421,0.01449,-0.13323,-0.01766
4.813,-0.00584,-0.00612,-0.00465,0.02178,-0.00004,-9.75518,40.043,40.902,41.477,48.642,0.08752,-0.04731,-0.01760
4.823,-0.00588,-0.00598,-0.00470,-0.00719,-0.04326,-9.77693,40.043,40.902,41.477,48.421,0.04289,0.05617,-0.01749
4.833,-0.00585,-0.00607,-0.00488,0.03191,-0.01358,-9.77781,40.043,40.882,41.477,48.531,0.15405,0.07422,-0.01748
4.843,-0.00585,-0.00616,-0.00505,-0.01180,-0.00449,-9.79563,40.043,40.882,41.477,48.421,0.04369,0.05049,-0.01754
4.853,-0.00580,-0.00621,-0.00528,0.02584,-0.00341,-9.79100,40.043,40.882,41.477,48.642,0.15233,0.01962,-0.01761
4.863,-0.00589,-0.00638,-0.00537,0.02307,0.02565,-9.80292,40.043,40.882,41.477,48.531,0.14069,-0.09303,-0.01791
4.873,-0.00598,-0.00674,-0.00532,0.01774,-0.00600,-9.79539,40.043,40.882,41.477,48.421,0.10928,0.01585,-0.01769
4.883,-0.00607,-0.00678,-0.00546,-0.00858,-0.06568,-9.77018,40.043,40.882,41.477,48.421,0.06442,0.11958,-0.01756
4.893,-0.00616,-0.00678,-0.00559,-0.00249,0.03320,-9.78184,40.043,40.882,41.477,48.421,0.03684,0.01001,-0.01767
4.903,-0.00629,-0.00692,-0.00581,-0.00467,0.03346,-9.74564,40.043,40.882,41.477,48.310,0.00345,-0.09732,-0.01773
4.913,-0.00638,-0.00678,-0.00581,0.00164,-0.00858,-9.78004,40.043,40.882,41.477,48.421,0.00811,0.01497,-0.01775
4.923,-0.00638,-0.00678,-0.00568,0.01444,-0.02723,-9.79104,40.043,40.882,41.477,48.310,0.06074,0.11448,-0.01771
4.933,-0.00625,-0.00647,-0.00572,-0.01028,0.01973,-9.77141,40.043,40.882,41.480,48.531,0.00837,0.01492,-0.01779
4.943,-0.00611,-0.00660,-0.00595,-0.00152,-0.04793,-9.78582,40.043,40.882,41.480,48.421,0.00104,0.12723,-0.01781
4.953,-0.00611,-0.00674,-0.00613,-0.02117,-0.05268,-9.79378,40.043,40.882,41.480,48.642,-0.06305,0.22003,-0.01789
4.963,-0.00625,-0.00669,-0.00626,0.03267,0.01454,-9.76120,40.043,40.882,41.480,48.531,0.00898,0.13367,-0.01787
4.973,-0.00629,-0.00647,-0.00635,-0.01343,0.00536,-9.74411,40.043,40.882,41.480,48.421,-0.04367,0.03483,-0.01787
4.983,-0.00624,-0.00638,-0.00644,0.03361,-0.02430,-9.80641,40.046,40.882,41.480,48.531,0.05902,0.08065,-0.01790
4.993,-0.00607,-0.00620,-0.00635,0.05912,-0.01700,-9.77676,40.046,40.882,41.480,48.531,0.17119,0.08803,-0.01791
5.003,-0.00598,-0.00598,-0.00617,0.02597,-0.02073,-9.80836,40.046,40.882,41.480,48.531,0.11384,0.18521,-0.01770
5.013,-0.00611,-0.00620,-0.00586,0.03961,-0.01488,-9.76579,40.046,40.882,41.480,48.421,0.20063,0.11351,-0.01792
5.023,-0.00629,-0.00647,-0.00572,0.01004,-0.03950,-9.80193,40.046,40.882,41.480,48.421,0.11358,0.18543,-0.01774
5.033,-0.00636,-0.00643,-0.00572,0.03409,-0.02443,-9.77666,40.046,40.923,41.480,48.421,0.21483,0.13577,-0.01791
5.043,-0.00627,-0.00656,-0.00604,-0.00999,-0.01299,-9.80050,40.046,40.923,41.480,48.531,0.10437,0.11158,-0.01800
5.053,-0.00623,-0.00638,-0.00635,0.03688,0.04539,-9.75908,40.046,40.923,41.480,48.421,0.13638,0.00356,-0.01826
5.063,-0.00618,-0.00643,-0.00649,0.01267,0.02504,-9.81332,40.046,40.923,41.480,48.421,0.09291,-0.10070,-0.01849
5.073,-0.00614,-0.00651,-0.00648,0.06261,0.01811,-9.77542,40.046,40.923,41.480,48.421,0.20565,-0.10297,-0.01852
5.083,-0.00614,-0.00647,-0.00644,0.00833,0.04278,-9.79352,40.046,40.923,41.480,48.531,0.12328,-0.18030,-0.01878
5.093,-0.00605,-0.00651,-0.00631,0.00122,0.01647,-9.76384,40.046,40.923,41.480,48.531,0.03187,-0.11449,-0.01871
5.103,-0.00596,-0.00674,-0.00613,0.03819,-0.00286,-9.77337,40.046,40.923,41.480,48.531,0.12473,-0.05102,-0.01866
5.113,-0.00601,-0.00674,-0.00586,-0.00750,-0.00621,-9.76591,40.046,40.923,41.480,48.421,0.02500,0.00066,-0.01861
5.123,-0.00605,-0.00692,-0.00577,0.01980,0.02623,-9.74902,40.046,40.923,41.480,48.531,0.08184,-0.09573,-0.01873
5.133,-0.00610,-0.00701,-0.00581,0.02272,-0.00331,-9.80746,40.046,40.923,41.481,48.531,0.12730,0.00706,-0.01856
5.143,-0.00605,-0.00678,-0.00590,0.02188,-0.00986,-9.80709,40.046,40.923,41.481,48.531,0.12844,0.11989,-0.01833
5.153,-0.00596,-0.00638,-0.00595,-0.02490,-0.01681,-9.76948,40.046,40.923,41.481,48.310,0.01612,0.11116,-0.01836
5.163,-0.00587,-0.00620,-0.00586,0.00218,-0.03063,-9.77370,40.046,40.923,41.481,48.531,0.01057,0.22353,-0.01836
5.173,-0.00583,-0.00589,-0.00568,0.02299,-0.01766,-9.79346,40.046,40.923,41.481,48.310,0.09146,0.14501,-0.01845
5.183,-0.00569,-0.00580,-0.00546,0.00114,-0.04635,-9.80070,39.995,40.923,41.481,48.531,0.02832,0.23874,-0.01838
5.193,-0.00561,-0.00585,-0.00537,0.03597,0.00647,-9.78096,39.995,40.923,41.481,48.200,0.09046,0.14443,-0.01849
5.203,-0.00561,-0.00580,-0.00514,0.03348,0.01645,-9.75798,39.995,40.923,41.481,48.642,0.13578,0.04142,-0.01870
5.213,-0.00561,-0.00563,-0.00492,0.01483,-0.02529,-9.79465,39.995,40.923,41.481,48.531,0.08863,0.14384,-0.01852
5.223,-0.00556,-0.00554,-0.00465,0.00870,0.01075,-9.80250,39.995,40.923,41.481,48.642,0.06828,0.03261,-0.01868
5.233,-0.00564,-0.00536,-0.00470,0.01481,0.00758,-9.80054,39.995,40.949,41.481,48.310,0.09449,-0.07760,-0.01885
5.243,-0.00564,-0.00531,-0.00492,0.01575,-0.01452,-9.78617,39.995,40.949,41.481,48.752,0.09291,0.03559,-0.01868
5.253,-0.00564,-0.00509,-0.00515,0.00771,0.04887,-9.76976,39.995,40.949,41.481,48.421,0.07637,-0.07614,-0.01887
5.263,-0.00564,-0.00500,-0.00532,0.01657,0.01589,-9.76192,39.995,40.949,41.481,48.421,0.16337,-0.14761,-0.01903
5.273,-0.00582,-0.00509,-0.00541,0.00259,0.04048,-9.78063,39.995,40.949,41.481,48.642,0.06698,-0.20584,-0.01916
5.283,-0.00591,-0.00536,-0.00546,-0.02152,0.02039,-9.80512,39.995,40.949,41.481,48.531,-0.03605,-0.15950,-0.01917
5.293,-0.00604,-0.00580,-0.00546,-0.00087,0.01044,-9.79482,39.995,40.949,41.481,48.421,-0.00215,-0.05162,-0.01923
5.303,-0.00627,-0.00620,-0.00532,0.03153,-0.00730,-9.80029,39.995,40.949,41.481,48.421,0.09894,-0.00050,-0.01920
5.313,-0.00644,-0.00629,-0.00528,0.03766,-0.01011,-9.79189,39.995,40.949,41.481,48.531,0.20064,0.04947,-0.01909
5.323,-0.00653,-0.00625,-0.00505,-0.02458,-0.01399,-9.79761,39.995,40.949,41.481,48.310,0.08766,0.06006,-0.01908
5.333,-0.00653,-0.00611,-0.00492,0.00907,0.00645,-9.79288,39.995,40.949,41.481,48.531,0.04978,-0.04692,-0.01921
5.343,-0.00649,-0.00625,-0.00488,0.02331,-0.03209,-9.76216,39.995,40.949,41.481,48.421,0.08896,0.05906,-0.01910
5.353,-0.00649,-0.00643,-0.00501,-0.01330,-0.00216,-9.79400,39.995,40.949,41.481,48.310,-0.02006,0.02871,-0.01913
5.363,-0.00649,-0.00665,-0.00501,0.00529,0.00917,-9.78400,39.995,40.949,41.481,48.421,0.03946,-0.06745,-0.01915
5.373,-0.00663,-0.00701,-0.00505,0.03593,0.03034,-9.75994,39.995,40.949,41.481,48.421,0.13410,-0.12857,-0.01926
5.383,-0.00680,-0.00714,-0.00514,0.04121,-0.04586,-9.75307,39.988,40.949,41.481,48.421,0.16348,-0.02025,-0.01900
5.393,-0.00698,-0.00700,-0.00519,-0.01311,-0.02701,-9.76637,39.988,40.949,41.481,48.531,0.07347,0.04660,-0.01888
5.403,-0.00694,-0.00700,-0.00519,-0.02579,0.00757,-9.77620,39.988,40.949,41.481,48.310,-0.03050,0.00449,-0.01891
5.413,-0.00685,-0.00687,-0.00501,0.02768,0.00520,-9.72986,39.988,40.949,41.481,48.310,0.07918,-0.01544,-0.01892
5.423,-0.00676,-0.00643,-0.00465,0.00944,0.03106,-9.76623,39.988,40.949,41.481,48.642,0.06340,-0.12584,-0.01908
5.433,-0.00658,-0.00603,-0.00438,-0.03459,-0.02480,-9.77107,39.988,40.949,41.481,48.421,-0.01477,-0.04623,-0.01904
5.443,-0.00654,-0.00589,-0.00429,-0.00111,-0.00611,-9.80775,39.988,40.949,41.481,48.310,-0.00348,0.06534,-0.01907
5.453,-0.00658,-0.00607,-0.00443,0.01637,0.00360,-9.77845,39.988,40.949,41.481,48.421,0.08118,-0.00832,-0.01914
5.463,-0.00676,-0.00634,-0.00470,0.01406,-0.02998,-9.77939,39.988,40.949,41.481,48.531,0.08189,0.10393,-0.01898
5.473,-0.00698,-0.00642,-0.00505,0.00569,0.00914,-9.77837,39.988,40.949,41.481,48.421,0.04878,-0.00342,-0.01912
5.483,-0.00716,-0.00629,-0.00541,0.00655,0.01411,-9.76911,39.988,40.949,41.481,48.421,0.03419,-0.11469,-0.01921
5.493,-0.00725,-0.00607,-0.00555,-0.00419,-0.01312,-9.78767,39.988,40.949,41.481,48.531,0.00122,-0.00728,-0.01920
5.503,-0.00716,-0.00553,-0.00532,0.06542,-0.00943,-9.75666,39.988,40.949,41.481,48.421,0.11180,0.01078,-0.01920
5.513,-0.00702,-0.00558,-0.00492,-0.01109,-0.00638,-9.80891,39.988,40.949,41.481,48.421,0.00049,0.02744,-0.01920
5.523,-0.00685,-0.00571,-0.00447,-0.05416,-0.03977,-9.83295,39.988,40.949,41.481,48.310,-0.09404,0.08850,-0.01925
5.533,-0.00662,-0.00562,-0.00434,-0.00286,-0.00553,-9.75788,39.988,40.949,41.479,48.531,-0.00321,0.02260,-0.01921
5.543,-0.00644,-0.00554,-0.00456,0.00925,-0.01055,-9.79255,39.988,40.949,41.479,48.531,0.08969,0.08596,-0.01917
5.553,-0.00635,-0.00567,-0.00506,-0.01086,-0.03049,-9.77082,39.988,40.949,41.479,48.531,-0.00644,0.14412,-0.01914
5.563,-0.00644,-0.00593,-0.00559,-0.01916,0.00500,-9.73443,39.988,40.949,41.479,48.531,-0.06483,0.04884,-0.01910
5.573,-0.00644,-0.00602,-0.00604,-0.00048,0.00572,-9.77594,39.988,40.949,41.479,48.310,0.00241,-0.04053,-0.01907
5.583,-0.00644,-0.00571,-0.00635,-0.01767,0.00975,-9.76619,39.989,40.949,41.479,48.421,-0.10803,-0.05788,-0.01909
5.593,-0.00631,-0.00562,-0.00658,-0.03889,0.03592,-9.77480,39.989,40.949,41.479,48.531,-0.17714,-0.14585,-0.01889
5.603,-0.00626,-0.00558,-0.00662,-0.05343,0.00948,-9.78530,39.989,40.949,41.479,48.310,-0.27044,-0.08376,-0.01917
5.613,-0.00622,-0.00562,-0.00653,-0.04227,0.03665,-9.75468,39.989,40.949,41.479,48.421,-0.25188,-0.19402,-0.01870
5.623,-0.00613,-0.00562,-0.00631,0.02434,0.03215,-9.79043,39.989,40.949,41.479,48.421,-0.13980,-0.19237,-0.01872
5.633,-0.00608,-0.00585,-0.00622,0.00782,-0.00752,-9.77323,39.989,40.957,41.479,48.531,-0.07060,-0.10421,-0.01891
5.643,-0.00604,-0.00580,-0.00631,-0.00897,-0.05390,-9.81355,39.989,40.957,41.479,48.421,-0.06573,0.00815,-0.01907
5.653,-0.00599,-0.00562,-0.00658,0.02584,-0.03153,-9.81042,39.989,40.957,41.479,48.531,0.02183,0.07929,-0.01913
5.663,-0.00612,-0.00589,-0.00680,-0.00634,0.00397,-9.80125,39.989,40.957,41.479,48.421,-0.03456,-0.01879,-0.01915
5.673,-0.00639,-0.00598,-0.00684,-0.00091,0.03980,-9.79308,39.989,40.957,41.479,48.421,-0.01927,-0.13096,-0.01913
5.683,-0.00653,-0.00598,-0.00680,-0.00114,0.02990,-9.82891,39.989,40.957,41.479,48.531,0.01227,-0.23963,-0.01915
5.693,-0.00657,-0.00584,-0.00671,0.02426,-0.03342,-9.81725,39.989,40.957,41.479,48.531,0.04455,-0.13110,-0.01913
5.703,-0.00657,-0.00584,-0.00644,0.00194,-0.00651,-9.81461,39.989,40.957,41.479,48.531,0.02265,-0.01985,-0.01909
5.713,-0.00657,-0.00602,-0.00599,0.02106,-0.02586,-9.76735,39.989,40.957,41.479,48.531,0.07993,0.07757,-0.01902
5.723,-0.00666,-0.00589,-0.00555,0.00996,-0.02264,-9.76728,39.989,40.957,41.479,48.531,0.03905,0.18264,-0.01892
5.733,-0.00658,-0.00598,-0.00519,0.01238,0.02061,-9.76871,39.989,40.957,41.480,48.421,0.05140,0.07076,-0.01903
5.743,-0.00649,-0.00607,-0.00488,-0.01393,0.00002,-9.76062,39.989,40.957,41.480,48.531,-0.04771,0.01799,-0.01904
5.753,-0.00653,-0.00607,-0.00519,-0.00085,0.04246,-9.78302,39.989,40.957,41.480,48.421,-0.02995,-0.09298,-0.01898
5.763,-0.00657,-0.00616,-0.00559,0.00820,-0.01262,-9.75637,39.989,40.957,41.480,48.421,0.01748,0.00851,-0.01901
5.773,-0.00662,-0.00593,-0.00573,-0.02452,-0.01406,-9.78153,39.989,40.957,41.480,48.421,-0.08451,0.05523,-0.01905
5.783,-0.00662,-0.00607,-0.00564,-0.03449,-0.01200,-9.78549,40.037,40.957,41.480,48.310,-0.19596,0.06945,-0.01912
5.793,-0.00662,-0.00594,-0.00546,-0.02526,-0.00625,-9.79919,40.037,40.957,41.480,48.310,-0.10287,0.00598,-0.01896
5.803,-0.00653,-0.00589,-0.00537,0.00043,-0.01398,-9.77804,40.037,40.957,41.480,48.310,-0.01152,0.07179,-0.01904
5.813,-0.00653,-0.00611,-0.00532,-0.00566,-0.03505,-9.80545,40.037,40.957,41.480,48.531,-0.02960,0.18331,-0.01910
5.823,-0.00653,-0.00625,-0.00528,-0.01902,0.00335,-9.80280,40.037,40.957,41.480,48.421,-0.07186,0.07821,-0.01902
5.833,-0.00663,-0.00629,-0.00528,0.01694,0.05345,-9.78186,40.037,40.944,41.480,48.531,-0.02656,-0.02548,-0.01895
5.843,-0.00663,-0.00634,-0.00532,0.03056,-0.01840,-9.82245,40.037,40.944,41.480,48.531,0.06838,0.03609,-0.01894
5.853,-0.00663,-0.00638,-0.00528,-0.03566,0.00989,-9.75081,40.037,40.944,41.480,48.642,-0.03830,-0.00010,-0.01897
5.863,-0.00658,-0.00611,-0.00514,0.07248,0.01539,-9.79880,40.037,40.944,41.480,48.421,0.07250,-0.02168,-0.01898
5.873,-0.00658,-0.00594,-0.00505,0.01435,0.02012,-9.75103,40.037,40.944,41.480,48.421,0.08614,-0.13328,-0.01915
5.883,-0.00658,-0.00612,-0.00483,-0.01612,-0.01568,-9.78681,40.037,40.944,41.480,48.531,0.01572,-0.04550,-0.01908
5.893,-0.00658,-0.00598,-0.00474,-0.06673,-0.02994,-9.83847,40.037,40.944,41.480,48.531,-0.08309,0.00820,-0.01913
5.903,-0.00667,-0.00620,-0.00479,-0.01428,-0.02775,-9.76998,40.037,40.944,41.480,48.421,-0.08359,0.12050,-0.01930
5.913,-0.00672,-0.00620,-0.00492,-0.00938,0.03366,-9.77859,40.037,40.944,41.480,48.310,-0.07353,0.00858,-0.01916
5.923,-0.00676,-0.00625,-0.00492,0.04514,0.04160,-9.79894,40.037,40.944,41.480,48.752,0.01677,-0.05883,-0.01913
5.933,-0.00672,-0.00652,-0.00470,0.02169,-0.02883,-9.79792,40.037,40.944,41.480,48.531,0.06594,0.04280,-0.01907
5.943,-0.00672,-0.00643,-0.00438,-0.04403,-0.00490,-9.79265,40.037,40.944,41.481,48.642,-0.04702,0.03785,-0.01908
5.953,-0.00654,-0.00625,-0.00429,0.01698,-0.00561,-9.79458,40.037,40.944,41.481,48.642,0.06606,0.03394,-0.01908
5.963,-0.00632,-0.00621,-0.00429,0.02410,0.00893,-9.78048,40.037,40.944,41.481,48.642,0.14031,-0.05132,-0.01924
5.973,-0.00618,-0.00616,-0.00443,0.00209,-0.00710,-9.76475,40.037,40.944,41.481,48.421,0.04909,0.01491,-0.01913
5.983,-0.00614,-0.00625,-0.00470,0.00970,-0.00828,-9.78128,40.046,40.944,41.481,48.531,0.07435,0.12474,-0.01902
5.993,-0.00623,-0.00652,-0.00501,0.01469,-0.00677,-9.78733,40.046,40.944,41.481,48.421,0.08961,0.01297,-0.01920
6.003,-0.00631,-0.00669,-0.00532,0.00386,-0.00967,-9.80217,40.046,40.944,41.481,48.421,-0.00523,0.07457,-0.01917
6.013,-0.00636,-0.00656,-0.00555,-0.01665,0.01029,-9.80639,40.046,40.944,41.481,48.421,-0.06923,-0.01906,-0.01912
6.023,-0.00636,-0.00661,-0.00546,-0.01624,-0.02062,-9.80613,40.046,40.944,41.481,48.531,-0.08978,0.09266,-0.01929
6.033,-0.00618,-0.00652,-0.00532,0.02833,0.01044,-9.78412,40.046,40.941,41.481,48.531,0.00742,0.03416,-0.01926
6.043,-0.00605,-0.00638,-0.00510,-0.00850,-0.01726,-9.80012,40.046,40.941,41.481,48.531,-0.06645,0.12045,-0.01933
6.053,-0.00591,-0.00630,-0.00496,-0.04451,-0.01496,-9.78706,40.046,40.941,41.481,48.531,-0.17837,0.10149,-0.01929
6.063,-0.00591,-0.00603,-0.00496,-0.03907,-0.00139,-9.81437,40.046,40.941,41.481,48.421,-0.23177,0.00122,-0.01895
6.073,-0.00582,-0.00607,-0.00519,0.06463,0.00276,-9.80485,40.046,40.941,41.481,48.310,-0.11807,-0.00203,-0.01894
6.083,-0.00596,-0.00652,-0.00523,-0.01701,0.00988,-9.79956,40.046,40.941,41.481,48.531,-0.08208,-0.11001,-0.01877
6.093,-0.00609,-0.00678,-0.00528,0.00014,0.02187,-9.75939,40.046,40.941,41.481,48.421,0.02847,-0.13456,-0.01878
6.103,-0.00627,-0.00692,-0.00541,-0.00505,-0.00211,-9.73856,40.046,40.941,41.481,48.421,-0.01299,-0.02997,-0.01878
6.113,-0.00636,-0.00687,-0.00550,0.01141,0.00284,-9.76717,40.046,40.941,41.481,48.421,0.09779,-0.01155,-0.01878
6.123,-0.00636,-0.00678,-0.00555,0.00988,-0.02802,-9.77373,40.046,40.941,41.481,48.421,0.07294,0.09793,-0.01863
6.133,-0.00636,-0.00656,-0.00550,0.00266,0.00677,-9.75706,40.046,40.941,41.481,48.752,0.02988,-0.00548,-0.01875
6.143,-0.00632,-0.00652,-0.00523,0.04992,0.01907,-9.78419,40.046,40.941,41.481,48.310,0.13384,-0.04757,-0.01882
6.153,-0.00636,-0.00665,-0.00519,0.03200,0.00512,-9.81552,40.046,40.941,41.481,48.531,0.24053,-0.01195,-0.01871
6.163,-0.00649,-0.00669,-0.00532,0.01653,0.01594,-9.77317,40.046,40.941,41.481,48.421,0.14274,-0.06746,-0.01891
6.173,-0.00667,-0.00687,-0.00568,-0.01335,0.00339,-9.82896,40.046,40.941,41.481,48.531,0.03275,-0.04370,-0.01889
6.183,-0.00676,-0.00687,-0.00595,0.01450,-0.00388,-9.73907,40.043,40.941,41.481,48.421,0.10208,0.04411,-0.01881
6.193,-0.00680,-0.00709,-0.00622,-0.03409,0.02277,-9.78574,40.043,40.941,41.481,48.200,0.00540,-0.01276,-0.01889
6.203,-0.00685,-0.00674,-0.00626,-0.01318,-0.01908,-9.81498,40.043,40.941,41.481,48.421,-0.05680,0.08096,-0.01896
6.213,-0.00685,-0.00647,-0.00631,0.00697,0.01445,-9.75825,40.043,40.941,41.481,48.531,0.00014,-0.01570,-0.01893
6.223,-0.00689,-0.00647,-0.00631,-0.00384,-0.01897,-9.77563,40.043,40.941,41.481,48.310,-0.01958,0.09472,-0.01897
6.233,-0.00694,-0.00642,-0.00617,0.01539,-0.01650,-9.77250,40.043,40.941,41.481,48.421,0.09253,0.09676,-0.01899
6.243,-0.00695,-0.00638,-0.00599,0.01208,0.00140,-9.79332,40.043,40.906,41.481,48.531,0.06956,-0.01333,-0.01917
6.253,-0.00690,-0.00616,-0.00586,0.02326,-0.03242,-9.77503,40.043,40.906,41.481,48.531,0.10460,0.09342,-0.01902
6.263,-0.00682,-0.00611,-0.00590,0.01014,-0.00523,-9.77404,40.043,40.906,41.481,48.421,0.03901,0.00220,-0.01916
6.273,-0.00682,-0.00625,-0.00608,0.04595,-0.03157,-9.76509,40.043,40.906,41.481,48.421,0.12683,0.07191,-0.01908
6.283,-0.00681,-0.00602,-0.00599,0.03187,-0.02293,-9.75895,40.043,40.906,41.481,48.642,0.20434,0.15260,-0.01886
6.293,-0.00668,-0.00611,-0.00581,-0.01928,-0.02533,-9.78000,40.043,40.906,41.481,48.531,0.09229,0.15110,-0.01889
6.303,-0.00655,-0.00611,-0.00559,-0.02236,0.00442,-9.77342,40.043,40.906,41.481,48.421,0.00446,0.08149,-0.01898
6.313,-0.00646,-0.00643,-0.00546,0.00828,0.00100,-9.77923,40.043,40.906,41.481,48.421,0.05494,-0.01865,-0.01904
6.323,-0.00646,-0.00638,-0.00546,0.00704,0.02219,-9.76345,40.043,40.906,41.481,48.531,0.04136,-0.12981,-0.01915
6.333,-0.00642,-0.00660,-0.00550,-0.00977,-0.03592,-9.76924,40.043,40.906,41.481,48.421,0.01019,-0.02232,-0.01911
6.343,-0.00637,-0.00665,-0.00546,0.00324,-0.00201,-9.78444,40.043,40.906,41.480,48.421,0.03810,0.08624,-0.01908
6.353,-0.00628,-0.00665,-0.00537,-0.00496,-0.04750,-9.78459,40.043,40.906,41.480,48.421,0.00099,0.19220,-0.01906
6.363,-0.00619,-0.00643,-0.00523,-0.05439,0.02139,-9.76875,40.043,40.906,41.480,48.531,-0.07863,0.11316,-0.01901
6.373,-0.00610,-0.00638,-0.00519,0.03752,-0.02875,-9.76906,40.043,40.906,41.480,48.310,0.03155,0.13361,-0.01904
6.383,-0.00602,-0.00652,-0.00528,-0.00620,0.01829,-9.80963,40.043,40.906,41.480,48.531,0.00099,0.02528,-0.01908
6.393,-0.00602,-0.00643,-0.00537,0.00330,-0.02631,-9.79581,40.044,40.906,41.480,48.421,0.01689,0.13692,-0.01908
6.403,-0.00593,-0.00634,-0.00528,0.00881,0.01296,-9.77797,40.044,40.906,41.480,48.421,0.03501,0.02567,-0.01915
6.413,-0.00584,-0.00643,-0.00546,-0.00291,-0.00741,-9.76915,40.044,40.906,41.480,48.310,-0.07147,0.06204,-0.01917
6.423,-0.00588,-0.00629,-0.00568,-0.04336,0.01943,-9.79093,40.044,40.906,41.480,48.642,-0.15261,-0.01618,-0.01903
6.433,-0.00584,-0.00634,-0.00577,-0.01887,0.01335,-9.79230,40.044,40.906,41.480,48.421,-0.08907,-0.10944,-0.01885
6.443,-0.00583,-0.00594,-0.00581,0.00801,0.01732,-9.80127,40.044,40.906,41.480,48.531,0.02382,-0.10264,-0.01888
6.453,-0.00579,-0.00576,-0.00573,-0.01408,-0.03693,-9.79214,40.044,40.906,41.480,48.531,-0.01197,0.00473,-0.01888
6.463,-0.00588,-0.00563,-0.00550,-0.02352,-0.00184,-9.75133,40.044,40.906,41.480,48.531,-0.12448,0.01012,-0.01890
6.473,-0.00597,-0.00554,-0.00550,0.01973,-0.00377,-9.78092,40.044,40.906,41.480,48.531,-0.01200,0.01571,-0.01893
6.483,-0.00606,-0.00522,-0.00568,-0.01547,0.00475,-9.77828,40.044,40.906,41.480,48.421,-0.11051,-0.03884,-0.01888
6.493,-0.00606,-0.00540,-0.00586,-0.01944,-0.03414,-9.79934,40.044,40.906,41.480,48.531,-0.11202,0.07401,-0.01913
6.503,-0.00619,-0.00553,-0.00599,-0.00064,0.02975,-9.79313,40.044,40.906,41.480,48.752,-0.06683,-0.02958,-0.01898
6.513,-0.00641,-0.00558,-0.00608,-0.02371,-0.01335,-9.76987,40.044,40.906,41.480,48.310,-0.12958,0.06410,-0.01916
6.523,-0.00655,-0.00571,-0.00608,-0.01295,0.00532,-9.83056,40.044,40.906,41.480,48.421,-0.07384,-0.03393,-0.01902
6.533,-0.00672,-0.00571,-0.00617,0.01863,-0.00852,-9.74917,40.044,40.906,41.480,48.421,0.02821,0.01282,-0.01905
6.543,-0.00677,-0.00593,-0.00595,0.00570,0.04706,-9.79228,40.044,40.906,41.478,48.531,0.03020,-0.09969,-0.01913
6.553,-0.00668,-0.00607,-0.00564,0.00086,-0.01444,-9.76317,40.044,40.906,41.478,48.421,0.01502,0.01153,-0.01910
6.563,-0.00677,-0.00598,-0.00532,-0.00572,-0.00919,-9.79890,40.044,40.906,41.478,48.531,-0.06993,0.08545,-0.01914
6.573,-0.00686,-0.00598,-0.00523,-0.00235,0.01352,-9.78756,40.044,40.906,41.478,48.531,-0.03353,-0.02124,-0.01907
6.583,-0.00700,-0.00611,-0.00523,0.02757,0.04759,-9.79641,40.044,40.906,41.478,48.421,0.03465,-0.11128,-0.01908
6.593,-0.00704,-0.00611,-0.00541,0.01058,-0.03539,-9.76854,40.045,40.906,41.478,48.421,0.04428,0.00097,-0.01902
6.603,-0.00704,-0.00602,-0.00537,0.02830,-0.03725,-9.74331,40.045,40.906,41.478,48.421,0.09905,0.09877,-0.01890
6.613,-0.00700,-0.00616,-0.00532,0.02874,0.01314,-9.78491,40.045,40.906,41.478,48.421,0.14020,-0.00571,-0.01914
6.623,-0.00695,-0.00598,-0.00546,-0.00636,-0.03198,-9.79698,40.045,40.906,41.478,48.531,0.06394,0.07711,-0.01900
6.633,-0.00677,-0.00580,-0.00555,-0.01847,-0.01755,-9.79645,40.045,40.906,41.478,48.531,-0.04769,0.09365,-0.01902
6.643,-0.00651,-0.00589,-0.00537,0.00006,-0.04172,-9.79586,40.045,40.898,41.478,48.421,-0.01333,0.20130,-0.01908
6.653,-0.00633,-0.00594,-0.00506,-0.00968,-0.02820,-9.76840,40.045,40.898,41.478,48.531,-0.10025,0.12945,-0.01902
6.663,-0.00611,-0.00598,-0.00474,-0.00913,-0.01783,-9.75590,40.045,40.898,41.478,48.642,-0.00102,0.07675,-0.01898
6.673,-0.00602,-0.00581,-0.00479,-0.03854,-0.03559,-9.76748,40.045,40.898,41.478,48.421,-0.09782,0.13351,-0.01904
6.683,-0.00611,-0.00585,-0.00514,0.01457,-0.02309,-9.76489,40.045,40.898,41.478,48.531,0.01421,0.13470,-0.01905
6.693,-0.00619,-0.00576,-0.00559,-0.00469,0.00418,-9.76547,40.045,40.898,41.478,48.531,-0.01416,0.02640,-0.01906
6.703,-0.00628,-0.00598,-0.00573,-0.01608,-0.01141,-9.79162,40.045,40.898,41.478,48.421,-0.11436,0.07699,-0.01914
6.713,-0.00628,-0.00603,-0.00568,-0.02159,-0.02608,-9.78080,40.045,40.898,41.478,48.531,-0.13211,0.18788,-0.01939
6.723,-0.00624,-0.00611,-0.00559,0.01705,0.02988,-9.78236,40.045,40.898,41.478,48.421,-0.07160,0.09316,-0.01924
6.733,-0.00615,-0.00598,-0.00555,0.01090,-0.04277,-9.76134,40.045,40.898,41.478,48.642,0.00147,0.17822,-0.01931
6.743,-0.00602,-0.00603,-0.00541,0.01052,-0.03453,-9.78985,40.045,40.898,41.475,48.421,0.10590,0.21968,-0.01929
6.753,-0.00602,-0.00625,-0.00505,0.00875,0.07439,-9.77770,40.045,40.898,41.475,48.531,0.09655,0.10767,-0.01949
6.763,-0.00615,-0.00647,-0.00465,-0.01150,-0.01968,-9.76876,40.045,40.898,41.475,48.531,-0.01559,0.11295,-0.01949
6.773,-0.00633,-0.00643,-0.00456,-0.00190,-0.01548,-9.78246,40.045,40.898,41.475,48.531,0.00647,0.00277,-0.01948
6.783,-0.00651,-0.00634,-0.00479,-0.00380,-0.01705,-9.77241,40.045,40.898,41.475,48.752,-0.02542,0.11041,-0.01951
6.793,-0.00664,-0.00629,-0.00505,0.04261,0.02192,-9.79902,40.045,40.898,41.475,48.531,0.05957,0.03652,-0.01954
6.803,-0.00669,-0.00620,-0.00519,0.06070,0.02008,-9.77741,40.045,40.898,41.475,48.421,0.15941,-0.01548,-0.01965
6.813,-0.00682,-0.00611,-0.00501,0.01605,0.01333,-9.79328,40.045,40.898,41.475,48.642,0.07781,-0.09334,-0.01982
6.823,-0.00691,-0.00620,-0.00474,0.02297,-0.01177,-9.81715,40.045,40.898,41.475,48.421,0.11486,0.01335,-0.01966
6.833,-0.00691,-0.00625,-0.00465,0.02080,-0.00799,-9.79019,40.045,40.898,41.475,48.531,0.13770,0.12403,-0.01941
6.843,-0.00686,-0.00616,-0.00465,-0.01984,-0.03882,-9.78689,40.045,40.920,41.475,48.531,0.03296,0.16660,-0.01935
6.853,-0.00677,-0.00616,-0.00456,0.00725,0.03800,-9.75534,40.045,40.920,41.475,48.310,0.03573,0.05403,-0.01943
6.863,-0.00677,-0.00638,-0.00456,0.01403,-0.01778,-9.83322,40.045,40.920,41.475,48.531,0.11230,0.13652,-0.01932
6.873,-0.00695,-0.00652,-0.00443,0.01417,-0.01444,-9.80023,40.045,40.920,41.475,48.642,0.05675,0.03822,-0.01948
6.883,-0.00704,-0.00656,-0.00452,0.04691,0.01943,-9.76809,40.045,40.920,41.475,48.310,0.14915,-0.02619,-0.01960
6.893,-0.00704,-0.00656,-0.00474,-0.00535,0.01739,-9.78109,40.045,40.920,41.475,48.421,0.04525,-0.06977,-0.01968
6.903,-0.00713,-0.00660,-0.00492,0.02487,-0.06067,-9.76913,40.045,40.920,41.475,48.310,0.07111,0.03965,-0.01957
6.913,-0.00708,-0.00674,-0.00505,0.03162,0.05668,-9.76383,40.045,40.920,41.475,48.531,0.10407,-0.06766,-0.01974
6.923,-0.00713,-0.00692,-0.00519,-0.01942,-0.00290,-9.78473,40.045,40.920,41.475,48.421,-0.00069,-0.02696,-0.01972
6.933,-0.00722,-0.00705,-0.00523,-0.00457,0.01423,-9.76543,40.045,40.920,41.475,48.421,-0.04780,-0.12882,-0.01968
6.943,-0.00713,-0.00687,-0.00519,-0.00866,0.00911,-9.82293,40.045,40.920,41.481,48.642,-0.05183,-0.01649,-0.01980
6.953,-0.00699,-0.00687,-0.00514,0.03287,0.07262,-9.79070,40.045,40.920,41.481,48.531,0.00593,-0.11318,-0.01978
6.963,-0.00686,-0.00678,-0.00505,-0.02059,-0.01188,-9.75943,40.045,40.920,41.481,48.421,-0.05806,-0.02090,-0.01982
6.973,-0.00677,-0.00683,-0.00492,0.01461,0.03126,-9.82738,40.045,40.920,41.481,48.310,0.01657,-0.10500,-0.01980
6.983,-0.00673,-0.00669,-0.00496,-0.02740,-0.03457,-9.76633,40.045,40.920,41.481,48.310,-0.03949,-0.00775,-0.01982
6.993,-0.00668,-0.00665,-0.00496,0.01297,0.03876,-9.76863,40.043,40.920,41.481,48.421,0.01273,-0.10701,-0.01981
7.003,-0.00655,-0.00652,-0.00519,0.00785,0.01900,-9.74135,40.043,40.920,41.481,48.531,0.12326,-0.12276,-0.01985
7.013,-0.00646,-0.00647,-0.00532,-0.01746,0.03418,-9.78779,40.043,40.920,41.481,48.310,0.01733,-0.15908,-0.01990
7.023,-0.00646,-0.00643,-0.00550,0.01280,0.00183,-9.80659,40.043,40.920,41.481,48.421,0.05794,-0.05421,-0.01984
7.033,-0.00637,-0.00643,-0.00564,0.01541,-0.00868,-9.79499,40.043,40.920,41.481,48.531,0.09097,0.05355,-0.01972
7.043,-0.00637,-0.00629,-0.00564,-0.02391,-0.05141,-9.81266,40.043,40.896,41.481,48.310,0.01379,0.13608,-0.01965
7.053,-0.00637,-0.00607,-0.00550,0.02019,0.00163,-9.77848,40.043,40.896,41.481,48.421,0.07959,0.04435,-0.01974
7.063,-0.00633,-0.00589,-0.00537,0.04616,-0.00323,-9.79915,40.043,40.896,41.481,48.421,0.19169,0.02933,-0.01979
7.073,-0.00629,-0.00616,-0.00528,0.00496,-0.02060,-9.77890,40.043,40.896,41.481,48.531,0.09318,0.08466,-0.01967
7.083,-0.00620,-0.00634,-0.00537,-0.00276,-0.02555,-9.77446,40.043,40.896,41.481,48.421,-0.00377,0.14237,-0.01964
7.093,-0.00624,-0.00634,-0.00564,0.00824,0.00300,-9.79731,40.043,40.896,41.481,48.421,0.03115,0.03487,-0.01967
7.103,-0.00628,-0.00629,-0.00595,-0.02611,0.01140,-9.76854,40.043,40.896,41.481,48.531,-0.06758,-0.01965,-0.01968
7.113,-0.00624,-0.00638,-0.00595,0.01068,-0.05345,-9.79274,40.043,40.896,41.481,48.531,-0.02646,0.08549,-0.01978
7.123,-0.00611,-0.00629,-0.00604,0.00497,-0.03816,-9.83084,40.043,40.896,41.481,48.421,0.01589,0.19010,-0.01981
7.133,-0.00602,-0.00625,-0.00626,-0.01129,-0.00151,-9.77029,40.043,40.896,41.481,48.421,-0.03063,0.08747,-0.01982
7.143,-0.00597,-0.00634,-0.00653,0.01055,-0.02986,-9.79747,40.043,40.896,41.476,48.531,0.05145,0.16497,-0.01983
7.153,-0.00597,-0.00647,-0.00657,-0.03513,0.00509,-9.80511,40.043,40.896,41.476,48.531,-0.03877,0.09653,-0.01986
7.163,-0.00615,-0.00651,-0.00653,0.02410,0.04215,-9.78033,40.043,40.896,41.476,48.531,0.01370,-0.00366,-0.01987
7.173,-0.00633,-0.00674,-0.00648,0.04312,-0.00715,-9.77744,40.043,40.896,41.476,48.531,0.12463,0.01748,-0.01985
7.183,-0.00646,-0.00660,-0.00644,0.01436,0.02364,-9.75946,40.043,40.896,41.476,48.531,0.09650,-0.09154,-0.02009
7.193,-0.00655,-0.00678,-0.00662,0.04620,0.03034,-9.78895,40.007,40.896,41.476,48.421,0.19749,-0.14153,-0.02024
7.203,-0.00664,-0.00660,-0.00689,-0.00282,0.04609,-9.81315,40.007,40.896,41.476,48.421,0.10043,-0.19939,-0.02043
7.213,-0.00668,-0.00638,-0.00711,0.02825,-0.00396,-9.75764,40.007,40.896,41.476,48.421,0.13216,-0.09142,-0.02023
7.223,-0.00668,-0.00620,-0.00720,0.05207,0.01022,-9.79872,40.007,40.896,41.476,48.421,0.24313,-0.07105,-0.02020
7.233,-0.00673,-0.00615,-0.00711,-0.01316,-0.02341,-9.79450,40.007,40.896,41.476,48.421,0.14836,-0.00950,-0.02001
7.243,-0.00684,-0.00602,-0.00729,0.02129,0.03686,-9.79924,40.007,40.943,41.476,48.421,0.13532,-0.12197,-0.02032
7.253,-0.00702,-0.00597,-0.00734,-0.00905,-0.00343,-9.78157,40.007,40.943,41.476,48.531,0.04501,-0.05389,-0.02024
7.263,-0.00715,-0.00589,-0.00711,0.01895,-0.01393,-9.75000,40.007,40.943,41.476,48.531,0.09442,0.04720,-0.02016
7.273,-0.00720,-0.00584,-0.00680,-0.01935,-0.02367,-9.80733,40.007,40.943,41.476,48.421,-0.00901,0.09259,-0.02014
7.283,-0.00711,-0.00553,-0.00658,0.00704,0.02808,-9.78513,40.007,40.943,41.476,48.531,0.01264,-0.01828,-0.02017
7.293,-0.00689,-0.00535,-0.00622,-0.00819,-0.02306,-9.80136,40.007,40.943,41.476,48.531,-0.02898,0.08697,-0.02021
7.303,-0.00662,-0.00531,-0.00591,0.00155,-0.01826,-9.77364,40.007,40.943,41.476,48.421,0.07090,0.13970,-0.02021
7.313,-0.00635,-0.00553,-0.00577,-0.02493,-0.01286,-9.79117,40.007,40.943,41.476,48.531,-0.03747,0.10746,-0.02023
7.323,-0.00613,-0.00545,-0.00559,0.01722,0.01212,-9.78485,40.007,40.943,41.476,48.421,0.03176,0.01811,-0.02024
7.333,-0.00600,-0.00554,-0.00541,0.03842,0.02586,-9.80340,40.007,40.943,41.476,48.531,0.11690,-0.05663,-0.02034
7.343,-0.00604,-0.00567,-0.00528,-0.00484,-0.00032,-9.79605,40.007,40.943,41.477,48.421,0.01173,-0.01426,-0.02031
7.353,-0.00605,-0.00598,-0.00514,0.00084,-0.04529,-9.77738,40.007,40.943,41.477,48.531,0.00897,0.09888,-0.02030
7.363,-0.00605,-0.00598,-0.00519,0.00210,0.04062,-9.81440,40.007,40.943,41.477,48.531,0.01006,-0.01447,-0.02033
7.373,-0.00609,-0.00607,-0.00510,-0.02585,-0.04940,-9.82591,40.007,40.943,41.477,48.752,-0.04312,0.08557,-0.02036
7.383,-0.00609,-0.00638,-0.00501,0.00084,-0.01284,-9.77523,40.007,40.943,41.477,48.531,0.06743,0.06185,-0.02038
7.393,-0.00609,-0.00683,-0.00470,0.02300,0.01006,-9.77042,39.988,40.943,41.477,48.421,0.12239,-0.03668,-0.02054
7.403,-0.00614,-0.00683,-0.00447,-0.00609,0.00874,-9.74293,39.988,40.943,41.477,48.421,0.01063,-0.04709,-0.02055
7.413,-0.00623,-0.00710,-0.00438,-0.03028,-0.01320,-9.78552,39.988,40.943,41.477,48.531,-0.08310,0.01492,-0.02060
7.423,-0.00636,-0.00732,-0.00456,-0.01423,0.01168,-9.77625,39.988,40.943,41.477,48.421,-0.08353,-0.09745,-0.02044
7.433,-0.00650,-0.00714,-0.00496,0.01325,0.03301,-9.78072,39.988,40.943,41.477,48.642,0.01303,-0.15496,-0.02041
7.443,-0.00667,-0.00705,-0.00541,0.00102,0.01477,-9.81893,39.988,40.945,41.477,48.531,0.00143,-0.04292,-0.02041
7.453,-0.00676,-0.00714,-0.00563,-0.01659,0.04422,-9.79016,39.988,40.945,41.477,48.642,-0.04541,-0.14555,-0.02038
7.463,-0.00689,-0.00727,-0.00572,-0.01124,0.04106,-9.78820,39.988,40.945,41.477,48.310,-0.06919,-0.25590,-0.02028
7.473,-0.00694,-0.00718,-0.00559,0.00686,-0.02099,-9.78414,39.988,40.945,41.477,48.531,-0.03791,-0.14749,-0.02039
7.483,-0.00694,-0.00691,-0.00550,-0.02009,-0.02957,-9.78002,39.988,40.945,41.477,48.531,-0.06517,-0.03804,-0.02051
7.493,-0.00685,-0.00674,-0.00537,0.00287,-0.00830,-9.75793,39.988,40.945,41.477,48.531,0.01204,0.04365,-0.02056
7.503,-0.00667,-0.00683,-0.00550,0.02219,-0.00204,-9.73911,39.988,40.945,41.477,48.531,0.12008,0.01478,-0.02060
7.513,-0.00663,-0.00674,-0.00564,-0.00380,-0.01196,-9.78766,39.988,40.945,41.477,48.310,0.01556,0.05533,-0.02057
7.523,-0.00658,-0.00642,-0.00590,0.02338,0.01437,-9.78528,39.988,40.945,41.477,48.421,0.08924,-0.02938,-0.02066
7.533,-0.00653,-0.00665,-0.00604,-0.00228,-0.01156,-9.79651,39.988,40.945,41.477,48.531,0.00740,0.04793,-0.02061
7.543,-0.00649,-0.00665,-0.00617,0.04094,0.00487,-9.78019,39.988,40.945,41.474,48.421,0.11433,0.01275,-0.02067
7.553,-0.00636,-0.00656,-0.00631,0.03181,-0.01776,-9.79511,39.988,40.945,41.474,48.531,0.18407,0.10138,-0.02047
7.563,-0.00622,-0.00665,-0.00626,0.02277,-0.03386,-9.80077,39.988,40.945,41.474,48.531,0.13129,0.20137,-0.02021
7.573,-0.00604,-0.00678,-0.00604,-0.01672,0.00646,-9.81485,39.988,40.945,41.474,48.531,0.05296,0.11956,-0.02035
7.583,-0.00600,-0.00674,-0.00581,0.03638,0.01192,-9.79179,39.988,40.945,41.474,48.421,0.12604,0.03301,-0.02051
7.593,-0.00578,-0.00670,-0.00564,0.01516,-0.02679,-9.80632,40.054,40.945,41.474,48.310,0.09307,0.14165,-0.02031
7.603,-0.00564,-0.00674,-0.00555,-0.02601,-0.00117,-9.81243,40.054,40.945,41.474,48.531,-0.00652,0.08683,-0.02036
7.613,-0.00556,-0.00674,-0.00550,-0.01345,-0.01334,-9.79968,40.054,40.945,41.474,48.310,-0.11944,0.07302,-0.02035
7.623,-0.00551,-0.00692,-0.00555,0.03536,0.01648,-9.76965,40.054,40.945,41.474,48.421,-0.01886,0.02078,-0.02031
7.633,-0.00560,-0.00674,-0.00559,0.00113,0.03962,-9.75530,40.054,40.945,41.474,48.642,-0.00759,-0.09148,-0.02029
7.643,-0.00559,-0.00656,-0.00572,-0.00717,0.02198,-9.76538,40.054,40.956,41.474,48.421,-0.08377,-0.17435,-0.02024
7.653,-0.00564,-0.00661,-0.00586,0.01553,-0.00884,-9.75639,40.054,40.956,41.474,48.642,-0.01514,-0.08560,-0.02033
7.663,-0.00573,-0.00616,-0.00604,0.05943,-0.02436,-9.77317,40.054,40.956,41.474,48.421,0.07983,-0.02594,-0.02032
7.673,-0.00577,-0.00598,-0.00608,0.01389,0.02494,-9.79242,40.054,40.956,41.474,48.531,0.08115,-0.13838,-0.02049
7.683,-0.00568,-0.00580,-0.00599,0.02669,-0.06448,-9.78685,40.054,40.956,41.474,48.531,0.09735,-0.02699,-0.02034
7.693,-0.00573,-0.00585,-0.00564,0.03946,-0.00224,-9.74040,40.054,40.956,41.474,48.421,0.20467,0.00498,-0.02027
7.703,-0.00586,-0.00585,-0.00537,-0.02636,-0.00435,-9.78992,40.054,40.956,41.474,48.421,0.09259,0.01136,-0.02026
7.713,-0.00590,-0.00563,-0.00541,-0.00069,-0.05390,-9.74645,40.054,40.956,41.474,48.531,0.05885,0.11796,-0.02013
7.723,-0.00599,-0.00545,-0.00555,0.04516,0.01227,-9.80832,40.054,40.956,41.474,48.531,0.14130,0.04164,-0.02028
7.733,-0.00608,-0.00527,-0.00573,0.01000,-0.00701,-9.81063,40.054,40.956,41.474,48.642,0.02857,0.04064,-0.02029
7.743,-0.00622,-0.00545,-0.00586,-0.01126,-0.02342,-9.79933,40.054,40.956,41.478,48.531,-0.05054,0.12130,-0.02032
7.753,-0.00644,-0.00562,-0.00599,-0.00745,0.00039,-9.77472,40.054,40.956,41.478,48.531,-0.04427,0.00864,-0.02025
7.763,-0.00662,-0.00576,-0.00595,0.01491,0.01646,-9.80131,40.054,40.956,41.478,48.642,0.04411,-0.06192,-0.02026
7.773,-0.00671,-0.00571,-0.00573,-0.01402,-0.00300,-9.77591,40.054,40.956,41.478,48.531,-0.05144,-0.00175,-0.02028
7.783,-0.00671,-0.00567,-0.00546,0.02695,-0.01042,-9.77978,40.054,40.956,41.478,48.531,0.05663,0.03067,-0.02028
7.793,-0.00666,-0.00589,-0.00519,0.00273,-0.04606,-9.78302,40.046,40.956,41.478,48.531,0.03772,0.14189,-0.02020
7.803,-0.00671,-0.00603,-0.00506,0.00274,0.01568,-9.76345,40.046,40.956,41.478,48.421,0.02736,0.02982,-0.02027
7.813,-0.00689,-0.00616,-0.00492,0.04123,0.00185,-9.79950,40.046,40.956,41.478,48.531,0.13819,0.00872,-0.02031
7.823,-0.00693,-0.00616,-0.00501,-0.01082,0.00935,-9.78190,40.046,40.956,41.478,48.421,0.03058,-0.02518,-0.02037
7.833,-0.00693,-0.00629,-0.00519,0.00634,-0.00915,-9.74911,40.046,40.956,41.478,48.531,0.04006,0.08670,-0.02031
7.843,-0.00693,-0.00647,-0.00528,0.01509,-0.00014,-9.80379,40.046,40.956,41.478,48.531,0.09517,-0.01163,-0.02043
7.853,-0.00689,-0.00651,-0.00537,-0.01928,-0.02220,-9.79124,40.046,40.956,41.478,48.531,0.00185,0.05184,-0.02038
7.863,-0.00684,-0.00656,-0.00532,0.00620,-0.01289,-9.77928,40.046,40.956,41.478,48.421,0.09481,0.11565,-0.02034
7.873,-0.00675,-0.00638,-0.00523,-0.00800,0.05216,-9.77329,40.046,40.956,41.478,48.531,0.05891,0.00887,-0.02050
7.883,-0.00662,-0.00620,-0.00510,0.04573,0.03359,-9.82673,40.046,40.956,41.478,48.531,0.13917,-0.07027,-0.02063
7.893,-0.00644,-0.00634,-0.00488,0.00344,0.01969,-9.80043,40.046,40.956,41.478,48.531,0.03340,-0.11009,-0.02071
7.903,-0.00627,-0.00647,-0.00479,0.00466,-0.01169,-9.78409,40.046,40.956,41.478,48.421,0.02953,0.00280,-0.02064
7.913,-0.00622,-0.00647,-0.00488,-0.02671,-0.03800,-9.77881,40.046,40.956,41.478,48.421,-0.04339,0.08895,-0.02066
7.923,-0.00622,-0.00656,-0.00510,0.01544,0.02411,-9.78399,40.046,40.956,41.478,48.421,0.01332,-0.00864,-0.02064
7.933,-0.00627,-0.00656,-0.00523,0.03495,0.04699,-9.76630,40.046,40.956,41.478,48.421,0.07898,-0.10012,-0.02073
7.943,-0.00631,-0.00665,-0.00541,0.02199,0.05958,-9.78387,40.046,40.956,41.479,48.531,0.10107,-0.21059,-0.02091
7.953,-0.00635,-0.00687,-0.00559,0.04809,-0.04041,-9.78243,40.046,40.956,41.479,48.531,0.14323,-0.10612,-0.02071
7.963,-0.00649,-0.00660,-0.00564,0.02601,0.01128,-9.79294,40.046,40.956,41.479,48.421,0.16772,0.00401,-0.02041
7.973,-0.00653,-0.00656,-0.00559,-0.03904,0.00131,-9.81315,40.046,40.956,41.479,48.421,0.05466,0.00067,-0.02043
7.983,-0.00658,-0.00665,-0.00546,-0.01316,-0.02263,-9.79731,40.046,40.956,41.479,48.421,-0.02542,0.08074,-0.02042
7.993,-0.00662,-0.00678,-0.00537,-0.01447,-0.00173,-9.80324,40.050,40.956,41.479,48.421,-0.09829,-0.00626,-0.02033
8.003,-0.00667,-0.00683,-0.00537,0.00206,0.01989,-9.75257,40.050,40.956,41.479,48.531,-0.01856,-0.08615,-0.02026
8.013,-0.00676,-0.00705,-0.00519,0.02855,0.05946,-9.77264,40.050,40.956,41.479,48.531,0.04658,-0.17813,-0.02029
8.023,-0.00680,-0.00701,-0.00505,0.03074,-0.00256,-9.82238,40.050,40.956,41.479,48.421,0.11048,-0.08516,-0.02017
8.033,-0.00689,-0.00696,-0.00510,0.03300,0.02363,-9.80981,40.050,40.956,41.479,48.531,0.20565,-0.14631,-0.02035
8.043,-0.00689,-0.00705,-0.00519,-0.01704,0.04705,-9.81990,40.050,40.954,41.479,48.531,0.10126,-0.19020,-0.02048
8.053,-0.00685,-0.00701,-0.00514,0.05935,0.00898,-9.79876,40.050,40.954,41.479,48.421,0.20015,-0.13480,-0.02033
8.063,-0.00680,-0.00705,-0.00519,0.00681,-0.00720,-9.84841,40.050,40.954,41.479,48.310,0.12414,-0.05121,-0.02011
8.073,-0.00676,-0.00669,-0.00519,0.00423,-0.05151,-9.77582,40.050,40.954,41.479,48.642,0.09356,0.05740,-0.01991
8.083,-0.00676,-0.00625,-0.00514,0.00610,0.03067,-9.84704,40.050,40.954,41.479,48.421,0.06663,-0.05192,-0.02006
8.093,-0.00662,-0.00661,-0.00505,0.03110,0.01893,-9.78892,40.050,40.954,41.479,48.421,0.16701,-0.10315,-0.02018
8.103,-0.00662,-0.00647,-0.00505,-0.04739,-0.03899,-9.76101,40.050,40.954,41.479,48.531,0.07690,-0.03597,-0.02004
8.113,-0.00662,-0.00647,-0.00505,0.03715,0.00838,-9.77894,40.050,40.954,41.479,48.421,0.18881,-0.04644,-0.02008
8.123,-0.00658,-0.00656,-0.00510,-0.01910,-0.05251,-9.74876,40.050,40.954,41.479,48.642,0.11637,0.03896,-0.01985
8.133,-0.00653,-0.00665,-0.00514,-0.00313,-0.05683,-9.77701,40.050,40.954,41.479,48.642,0.06969,0.14082,-0.01969
8.143,-0.00644,-0.00643,-0.00541,0.01135,-0.00374,-9.76318,40.050,40.954,41.481,48.421,0.06677,0.02894,-0.01984
8.153,-0.00649,-0.00643,-0.00564,0.01065,-0.03627,-9.74321,40.050,40.954,41.481,48.752,0.06427,0.14039,-0.01972
8.163,-0.00653,-0.00647,-0.00581,-0.01846,-0.02619,-9.76151,40.050,40.954,41.481,48.531,-0.04685,0.14897,-0.01973
8.173,-0.00662,-0.00629,-0.00599,-0.00218,0.00008,-9.80692,40.050,40.954,41.481,48.310,-0.02194,0.03971,-0.01969
8.183,-0.00662,-0.00616,-0.00608,-0.00309,-0.02131,-9.77243,40.050,40.954,41.481,48.531,-0.01690,0.15162,-0.01974
8.193,-0.00657,-0.00607,-0.00586,0.02911,0.01668,-9.80098,40.048,40.954,41.481,48.421,0.05063,0.06168,-0.01978
8.203,-0.00649,-0.00634,-0.00559,0.00150,0.01973,-9.80565,40.048,40.954,41.481,48.531,0.02463,-0.04818,-0.01986
8.213,-0.00627,-0.00652,-0.00519,-0.02620,-0.01660,-9.81531,40.048,40.954,41.481,48.421,-0.06295,0.02336,-0.01990
8.223,-0.00613,-0.00625,-0.00510,0.01900,0.02628,-9.75827,40.048,40.954,41.481,48.310,0.01599,-0.05701,-0.01987
8.233,-0.00604,-0.00643,-0.00523,0.00260,0.04086,-9.78063,40.048,40.954,41.481,48.310,0.01549,-0.16967,-0.01991
8.243,-0.00601,-0.00647,-0.00550,0.03175,-0.00132,-9.75363,40.048,40.932,41.481,48.421,0.09337,-0.08887,-0.01984
8.253,-0.00609,-0.00629,-0.00581,0.02880,0.01346,-9.76963,40.048,40.932,41.481,48.752,0.20455,-0.07430,-0.01982
8.263,-0.00618,-0.00611,-0.00599,0.04812,-0.02634,-9.82258,40.048,40.932,41.481,48.310,0.24015,0.03229,-0.01942
8.273,-0.00627,-0.00634,-0.00595,0.02910,-0.05289,-9.79284,40.048,40.932,41.481,48.531,0.21261,0.14148,-0.01900
8.283,-0.00636,-0.00638,-0.00595,0.01139,0.02326,-9.84468,40.048,40.932,41.481,48.421,0.16006,0.04207,-0.01934
8.293,-0.00645,-0.00625,-0.00577,0.01612,-0.00039,-9.83998,40.048,40.932,41.481,48.310,0.06377,-0.01587,-0.01947
8.303,-0.00645,-0.00629,-0.00546,0.03221,0.00563,-9.75320,40.048,40.932,41.481,48.421,0.17472,-0.03109,-0.01950
8.313,-0.00654,-0.00620,-0.00519,0.00161,0.01528,-9.75742,40.048,40.932,41.481,48.531,0.06937,-0.06847,-0.01959
8.323,-0.00658,-0.00603,-0.00510,0.05014,0.03604,-9.77688,40.048,40.932,41.481,48.421,0.16378,-0.12852,-0.01973
8.333,-0.00667,-0.00589,-0.00510,-0.01888,0.01296,-9.79270,40.048,40.932,41.481,48.310,0.05357,-0.10736,-0.01970
8.343,-0.00685,-0.00603,-0.00519,0.02154,-0.04588,-9.78473,40.048,40.932,41.482,48.421,0.07484,0.00294,-0.01957
8.353,-0.00699,-0.00625,-0.00523,0.03400,0.00813,-9.80144,40.048,40.932,41.482,48.310,0.17923,-0.03958,-0.01968
8.363,-0.00708,-0.00643,-0.00510,0.02288,0.00707,-9.79455,40.048,40.932,41.482,48.421,0.06640,-0.04403,-0.01970
8.373,-0.00725,-0.00634,-0.00488,-0.01449,0.02486,-9.78584,40.048,40.932,41.482,48.421,-0.02738,-0.10698,-0.01971
8.383,-0.00735,-0.00647,-0.00465,0.00088,0.00515,-9.82742,40.048,40.932,41.482,48.531,0.01653,-0.00296,-0.01973
8.393,-0.00730,-0.00656,-0.00438,-0.00732,-0.02399,-9.76639,40.048,40.932,41.482,48.421,-0.02657,0.10112,-0.01973
8.403,-0.00721,-0.00625,-0.00407,0.01135,0.03262,-9.77508,40.048,40.932,41.482,48.421,0.00757,-0.00616,-0.01972
8.413,-0.00708,-0.00598,-0.00371,0.02881,0.01502,-9.77163,40.048,40.932,41.482,48.421,0.10782,-0.05707,-0.01977
8.423,-0.00699,-0.00616,-0.00336,0.01888,0.03389,-9.82135,40.048,40.932,41.482,48.421,0.10968,-0.16971,-0.01996
8.433,-0.00695,-0.00647,-0.00326,0.01494,-0.01798,-9.78658,40.048,40.932,41.482,48.531,0.10060,-0.05737,-0.01974
8.443,-0.00686,-0.00665,-0.00340,0.00818,-0.01651,-9.74915,40.048,40.939,41.482,48.531,0.06443,0.04886,-0.01958
8.453,-0.00677,-0.00656,-0.00376,0.00243,0.03755,-9.82005,40.048,40.939,41.482,48.421,0.04367,-0.06172,-0.01968
8.463,-0.00659,-0.00696,-0.00420,-0.02528,-0.00152,-9.82208,40.048,40.939,41.482,48.531,-0.06204,-0.02270,-0.01968
8.473,-0.00650,-0.00705,-0.00452,-0.05328,-0.09707,-9.71419,40.048,40.939,41.482,48.642,-0.10565,0.08015,-0.01983
8.483,-0.00632,-0.00679,-0.00461,0.03769,-0.01173,-9.77622,40.048,40.939,41.482,48.531,0.00609,0.07623,-0.01983
8.493,-0.00618,-0.00661,-0.00452,0.03380,0.00398,-9.73311,40.048,40.939,41.482,48.421,0.10495,0.02513,-0.01988
8.503,-0.00605,-0.00665,-0.00443,0.00992,0.03054,-9.73367,40.048,40.939,41.482,48.310,0.08037,-0.08299,-0.02006
8.513,-0.00601,-0.00670,-0.00420,-0.02376,-0.04415,-9.79373,40.048,40.939,41.482,48.642,0.02012,0.01072,-0.01997
8.523,-0.00614,-0.00692,-0.00434,0.03911,0.04820,-9.79084,40.048,40.939,41.482,48.421,0.08500,-0.08033,-0.02005
8.533,-0.00627,-0.00714,-0.00492,-0.00331,0.06533,-9.79456,40.048,40.939,41.482,48.531,0.04833,-0.18636,-0.02019
8.543,-0.00650,-0.00732,-0.00550,-0.03000,-0.02955,-9.75825,40.048,40.939,41.483,48.531,-0.01094,-0.09140,-0.02017
8.553,-0.00658,-0.00705,-0.00599,-0.01600,-0.00368,-9.79319,40.048,40.939,41.483,48.531,-0.07726,-0.00083,-0.02024
8.563,-0.00654,-0.00674,-0.00617,0.01283,0.00611,-9.81341,40.048,40.939,41.483,48.531,0.03250,-0.02597,-0.02025
8.573,-0.00640,-0.00674,-0.00622,0.04511,0.01744,-9.84167,40.048,40.939,41.483,48.421,0.13935,-0.06107,-0.02032
8.583,-0.00627,-0.00683,-0.00608,0.00209,-0.00396,-9.77680,40.048,40.939,41.483,48.421,0.04563,0.00107,-0.02024
8.593,-0.00631,-0.00660,-0.00586,-0.00147,-0.00692,-9.79811,40.043,40.939,41.483,48.421,-0.04558,0.06735,-0.02025
8.603,-0.00636,-0.00638,-0.00581,0.03653,0.00046,-9.82240,40.043,40.939,41.483,48.531,0.06336,0.03785,-0.02027
8.613,-0.00654,-0.00643,-0.00577,0.02176,-0.02304,-9.79709,40.043,40.939,41.483,48.421,0.12559,0.13222,-0.02013
8.623,-0.00654,-0.00638,-0.00577,0.02214,0.03007,-9.75022,40.043,40.939,41.483,48.421,0.12723,0.01970,-0.02039
8.633,-0.00658,-0.00634,-0.00581,-0.04575,-0.00357,-9.73715,40.043,40.939,41.483,48.310,0.01531,0.02005,-0.02040
8.643,-0.00655,-0.00607,-0.00608,0.00224,-0.02013,-9.79135,40.043,40.909,41.483,48.421,0.01276,0.13221,-0.02039
8.653,-0.00632,-0.00589,-0.00608,0.00888,-0.01409,-9.77688,40.043,40.909,41.483,48.310,0.08238,0.04419,-0.02048
8.663,-0.00614,-0.00580,-0.00577,0.04701,0.00215,-9.79350,40.043,40.909,41.483,48.421,0.19029,0.01239,-0.02057
8.673,-0.00588,-0.00585,-0.00550,0.00789,0.02953,-9.76422,40.043,40.909,41.483,48.531,0.12148,-0.07634,-0.02082
8.683,-0.00566,-0.00603,-0.00532,0.03327,0.01044,-9.79862,40.043,40.909,41.483,48.531,0.23170,-0.05329,-0.02076
8.693,-0.00552,-0.00598,-0.00537,0.01236,-0.01730,-9.75681,40.043,40.909,41.483,48.531,0.15126,0.02502,-0.02050
8.703,-0.00557,-0.00589,-0.00532,-0.02780,0.03819,-9.79375,40.043,40.909,41.483,48.531,0.06302,-0.04482,-0.02065
8.713,-0.00575,-0.00607,-0.00523,-0.00539,0.00803,-9.75942,40.043,40.909,41.483,48.421,-0.04918,-0.04757,-0.02064
8.723,-0.00584,-0.00616,-0.00519,-0.00278,-0.00013,-9.75505,40.043,40.909,41.483,48.531,0.01368,0.04501,-0.02068
8.733,-0.00592,-0.00612,-0.00519,0.01861,-0.03113,-9.79390,40.043,40.909,41.483,48.310,0.07769,0.13723,-0.02062
8.743,-0.00588,-0.00616,-0.00528,-0.00064,-0.03318,-9.80466,40.043,40.909,41.484,48.752,-0.01484,0.20157,-0.02058
8.753,-0.00597,-0.00621,-0.00523,0.00212,0.01746,-9.72565,40.043,40.909,41.484,48.531,-0.00484,0.09014,-0.02058
8.763,-0.00592,-0.00598,-0.00519,0.04150,0.02385,-9.79498,40.043,40.909,41.484,48.531,0.07744,0.01380,-0.02064
8.773,-0.00588,-0.00629,-0.00510,-0.02391,-0.00691,-9.73808,40.043,40.909,41.484,48.642,-0.03342,0.02744,-0.02064
8.783,-0.00597,-0.00629,-0.00505,-0.00415,0.02476,-9.79152,40.043,40.909,41.484,48.421,-0.02751,-0.08445,-0.02058
8.793,-0.00606,-0.00643,-0.00505,0.02373,0.01206,-9.78851,40.026,40.909,41.484,48.531,0.08436,-0.07513,-0.02058
8.803,-0.00615,-0.00643,-0.00501,-0.00591,-0.02698,-9.79455,40.026,40.909,41.484,48.642,0.03317,0.02510,-0.02048
8.813,-0.00624,-0.00647,-0.00492,-0.00834,-0.01316,-9.76634,40.026,40.909,41.484,48.421,-0.06172,0.08526,-0.02050
8.823,-0.00633,-0.00638,-0.00479,-0.02101,0.02375,-9.78018,40.026,40.909,41.484,48.531,-0.09138,-0.02316,-0.02036
8.833,-0.00637,-0.00629,-0.00474,0.01200,-0.02703,-9.83164,40.026,40.909,41.484,48.310,-0.01650,0.06071,-0.02044
8.843,-0.00638,-0.00620,-0.00470,0.00027,0.00926,-9.79282,40.026,40.887,41.484,48.310,0.00101,-0.05059,-0.02042
8.853,-0.00647,-0.00625,-0.00470,0.00618,-0.00542,-9.81020,40.026,40.887,41.484,48.421,0.04537,0.05331,-0.02038
8.863,-0.00652,-0.00656,-0.00470,0.02906,0.00852,-9.78815,40.026,40.887,41.484,48.310,0.13246,-0.01873,-0.02050
8.873,-0.00660,-0.00652,-0.00474,-0.00267,-0.01783,-9.77442,40.026,40.887,41.484,48.421,0.04570,0.05343,-0.02039
8.883,-0.00660,-0.00669,-0.00492,-0.01311,0.01563,-9.80036,40.026,40.887,41.484,48.421,-0.02731,-0.03297,-0.02041
8.893,-0.00665,-0.00692,-0.00510,-0.01026,-0.00882,-9.78078,40.026,40.887,41.484,48.642,-0.06815,0.07239,-0.02050
8.903,-0.00674,-0.00669,-0.00501,-0.00468,0.00848,-9.77711,40.026,40.887,41.484,48.310,-0.03243,-0.03469,-0.02041
8.913,-0.00678,-0.00669,-0.00483,0.02853,0.03410,-9.80774,40.026,40.887,41.484,48.531,0.05481,-0.10682,-0.02043
8.923,-0.00683,-0.00669,-0.00465,0.00382,-0.05618,-9.76819,40.026,40.887,41.484,48.421,0.04643,0.00575,-0.02034
8.933,-0.00687,-0.00669,-0.00461,0.00406,-0.00092,-9.77117,40.026,40.887,41.484,48.531,-0.06626,0.00394,-0.02033
8.943,-0.00692,-0.00665,-0.00474,0.04620,-0.00798,-9.77142,40.026,40.887,41.481,48.531,0.04536,0.01812,-0.02034
8.953,-0.00696,-0.00674,-0.00483,0.02696,0.02240,-9.77601,40.026,40.887,41.481,48.642,0.11306,-0.07171,-0.02046
8.963,-0.00701,-0.00687,-0.00487,-0.00095,-0.01102,-9.74264,40.026,40.887,41.481,48.642,0.03962,0.01278,-0.02035
8.973,-0.00705,-0.00692,-0.00505,0.00523,-0.04897,-9.83130,40.026,40.887,41.481,48.310,0.03584,0.12479,-0.02029
8.983,-0.00700,-0.00678,-0.00532,0.01972,0.03144,-9.79162,40.026,40.887,41.481,48.421,0.06386,0.01597,-0.02039
8.993,-0.00687,-0.00647,-0.00559,0.00566,-0.01503,-9.81989,40.000,40.887,41.481,48.310,0.01935,0.11939,-0.02033
9.003,-0.00665,-0.00647,-0.00559,-0.03360,-0.02304,-9.82615,40.000,40.887,41.481,48.421,-0.09309,0.12719,-0.02035
9.013,-0.00642,-0.00625,-0.00546,-0.00763,0.01660,-9.77063,40.000,40.887,41.481,48.421,-0.06941,0.01717,-0.02020
9.023,-0.00625,-0.00620,-0.00510,0.00941,0.00022,-9.78245,40.000,40.887,41.481,48.421,0.04193,0.00063,-0.02019
9.033,-0.00611,-0.00616,-0.00501,-0.01993,0.02343,-9.79908,40.000,40.887,41.481,48.421,-0.04328,-0.07339,-0.02020
9.043,-0.00603,-0.00607,-0.00510,0.03113,0.01379,-9.76079,40.000,40.874,41.481,48.421,0.06916,-0.07715,-0.02021
9.053,-0.00589,-0.00603,-0.00541,-0.00623,-0.01922,-9.80095,40.000,40.874,41.481,48.310,0.01424,0.02143,-0.02014
9.063,-0.00585,-0.00611,-0.00586,-0.01762,-0.04540,-9.78975,40.000,40.874,41.481,48.421,-0.03467,0.12321,-0.02017
9.073,-0.00585,-0.00625,-0.00608,-0.02809,0.00563,-9.76776,40.000,40.874,41.481,48.531,-0.10679,0.03663,-0.02008
9.083,-0.00589,-0.00620,-0.00608,0.04581,0.03114,-9.79457,40.000,40.874,41.481,48.531,-0.00932,-0.02029,-0.02004
9.093,-0.00593,-0.00611,-0.00613,-0.03461,-0.01851,-9.79718,40.000,40.874,41.481,48.531,-0.10344,0.04237,-0.02011
9.103,-0.00589,-0.00611,-0.00604,0.01793,-0.00154,-9.75436,40.000,40.874,41.481,48.531,0.00773,0.02461,-0.02012
9.113,-0.00580,-0.00589,-0.00573,-0.00695,-0.01456,-9.80414,40.000,40.874,41.481,48.421,-0.06281,0.11283,-0.02017
9.123,-0.00585,-0.00620,-0.00528,0.00618,-0.03511,-9.82441,40.000,40.874,41.481,48.310,0.01994,0.18978,-0.02021
9.133,-0.00598,-0.00629,-0.00519,0.03367,0.01747,-9.81829,40.000,40.874,41.481,48.421,0.07850,0.09298,-0.02030
9.143,-0.00616,-0.00634,-0.00532,0.02747,0.00430,-9.79097,40.000,40.874,41.486,48.310,0.14317,0.00008,-0.02048
9.153,-0.00625,-0.00643,-0.00559,0.00412,-0.01971,-9.80382,40.000,40.874,41.486,48.421,0.06161,0.07891,-0.02035
9.163,-0.00634,-0.00642,-0.00581,0.00719,-0.02054,-9.80022,40.000,40.874,41.486,48.421,0.01287,0.18147,-0.02030
9.173,-0.00638,-0.00651,-0.00590,-0.00429,0.01514,-9.79960,40.000,40.874,41.486,48.531,-0.00296,0.06892,-0.02032
9.183,-0.00638,-0.00629,-0.00577,0.00409,0.03580,-9.77463,40.000,40.874,41.486,48.531,0.00794,-0.04392,-0.02034
9.193,-0.00620,-0.00603,-0.00546,0.02992,0.01349,-9.77848,40.011,40.874,41.486,48.421,0.11869,-0.06717,-0.02038
9.203,-0.00603,-0.00571,-0.00528,-0.04442,-0.02909,-9.82612,40.011,40.874,41.486,48.310,0.02282,-0.00706,-0.02031
9.213,-0.00585,-0.00558,-0.00532,-0.00012,-0.05561,-9.79994,40.011,40.874,41.486,48.421,0.01481,0.10599,-0.02028
9.223,-0.00580,-0.00558,-0.00532,-0.03802,-0.02166,-9.77305,40.011,40.874,41.486,48.421,-0.09783,0.11595,-0.02029
9.233,-0.00580,-0.00563,-0.00532,-0.01895,-0.00772,-9.74253,40.011,40.874,41.486,48.421,-0.11913,0.00556,-0.02009
9.243,-0.00574,-0.00603,-0.00541,0.00583,0.00161,-9.82665,40.011,40.934,41.486,48.531,-0.00712,-0.00538,-0.02009
9.253,-0.00574,-0.00598,-0.00564,0.02233,-0.01349,-9.77293,40.011,40.934,41.486,48.642,0.08879,0.05330,-0.02006
9.263,-0.00569,-0.00580,-0.00568,0.00762,0.01655,-9.80087,40.011,40.934,41.486,48.421,0.05689,-0.05488,-0.02020
9.273,-0.00565,-0.00580,-0.00573,-0.00645,-0.00099,-9.81615,40.011,40.934,41.486,48.421,-0.03821,0.00616,-0.02021
9.283,-0.00578,-0.00580,-0.00573,0.03987,0.01458,-9.79139,40.011,40.934,41.486,48.531,0.06895,-0.02996,-0.02023
9.293,-0.00591,-0.00576,-0.00577,0.01467,-0.01067,-9.77971,40.011,40.934,41.486,48.421,0.08936,0.08115,-0.02008
9.303,-0.00596,-0.00558,-0.00573,-0.02397,0.03580,-9.78735,40.011,40.934,41.486,48.421,0.01930,-0.00753,-0.02019
9.313,-0.00609,-0.00567,-0.00564,-0.01315,0.00195,-9.76303,40.011,40.934,41.486,48.421,-0.09327,-0.01213,-0.02019
9.323,-0.00631,-0.00589,-0.00559,-0.04529,-0.04541,-9.80126,40.011,40.934,41.486,48.421,-0.15264,0.08396,-0.02040
9.333,-0.00649,-0.00620,-0.00555,-0.01508,-0.03240,-9.76397,40.011,40.934,41.486,48.531,-0.09442,0.18038,-0.02062
9.343,-0.00663,-0.00643,-0.00546,-0.01358,-0.04022,-9.74713,40.011,40.934,41.483,48.531,-0.06620,0.28890,-0.02079
9.353,-0.00667,-0.00651,-0.00541,-0.01784,-0.03111,-9.78968,40.011,40.934,41.483,48.421,-0.10405,0.18307,-0.02063
9.363,-0.00667,-0.00647,-0.00541,0.00585,-0.00234,-9.80697,40.011,40.934,41.483,48.421,-0.03275,0.09565,-0.02054
9.373,-0.00676,-0.00616,-0.00537,0.01726,-0.05047,-9.78513,40.011,40.934,41.483,48.421,0.03002,0.18940,-0.02055
9.383,-0.00676,-0.00589,-0.00532,-0.03159,0.01474,-9.81313,40.011,40.934,41.483,48.421,-0.03946,0.10015,-0.02055
9.393,-0.00681,-0.00607,-0.00523,-0.03242,-0.02859,-9.79603,40.042,40.934,41.483,48.531,-0.14284,0.14631,-0.02063
9.403,-0.00685,-0.00589,-0.00519,0.00153,0.04822,-9.78180,40.042,40.934,41.483,48.421,-0.10510,0.03966,-0.02040
9.413,-0.00685,-0.00585,-0.00532,-0.03360,-0.00903,-9.75894,40.042,40.934,41.483,48.531,-0.21664,0.05578,-0.02045
9.423,-0.00681,-0.00580,-0.00532,0.00094,-0.00082,-9.78724,40.042,40.934,41.483,48.421,-0.10673,0.03053,-0.02039
9.433,-0.00681,-0.00585,-0.00523,-0.00456,-0.02058,-9.75593,40.042,40.934,41.483,48.421,-0.03227,0.11467,-0.02049
9.443,-0.00680,-0.00571,-0.00523,0.03533,-0.01907,-9.76820,40.042,40.949,41.483,48.531,0.07996,0.11334,-0.02051
9.453,-0.00671,-0.00545,-0.00523,0.02041,0.00878,-9.73543,40.042,40.949,41.483,48.310,0.10636,0.00485,-0.02069
9.463,-0.00662,-0.00518,-0.00528,-0.03310,0.02992,-9.74350,40.042,40.949,41.483,48.531,0.01096,-0.05247,-0.02076
9.473,-0.00658,-0.00518,-0.00528,-0.03543,-0.00207,-9.75408,40.042,40.949,41.483,48.421,-0.09566,-0.02102,-0.02078
9.483,-0.00653,-0.00487,-0.00546,-0.00883,-0.00910,-9.81054,40.042,40.949,41.483,48.531,-0.03852,0.07506,-0.02090
9.493,-0.00648,-0.00464,-0.00555,-0.02522,-0.02042,-9.73693,40.042,40.949,41.483,48.421,-0.14149,0.11732,-0.02099
9.503,-0.00653,-0.00482,-0.00568,0.08078,-0.01198,-9.74509,40.042,40.949,41.483,48.310,-0.03075,0.10889,-0.02098
9.513,-0.00653,-0.00504,-0.00582,0.00413,0.00017,-9.75388,40.042,40.949,41.483,48.752,0.01894,0.00966,-0.02099
9.523,-0.00648,-0.00509,-0.00591,0.00217,-0.06935,-9.75538,40.042,40.949,41.483,48.421,0.01722,0.12056,-0.02096
9.533,-0.00640,-0.00527,-0.00577,-0.00250,-0.00314,-9.77557,40.042,40.949,41.483,48.310,-0.01591,0.01442,-0.02097
9.543,-0.00626,-0.00531,-0.00546,0.05625,0.00318,-9.78952,40.042,40.949,41.483,48.531,0.09518,0.00378,-0.02098
9.553,-0.00618,-0.00549,-0.00528,0.02058,-0.01946,-9.81838,40.042,40.949,41.483,48.421,0.11997,0.11301,-0.02079
9.563,-0.00618,-0.00576,-0.00523,0.00465,-0.01794,-9.76723,40.042,40.949,41.483,48.421,0.00842,0.10366,-0.02080
9.573,-0.00613,-0.00598,-0.00528,0.03665,-0.00910,-9.75369,40.042,40.949,41.483,48.421,0.11693,0.07733,-0.02084
9.583,-0.00613,-0.00620,-0.00537,0.02763,0.01703,-9.78770,40.042,40.949,41.483,48.531,0.14439,-0.03122,-0.02109
9.593,-0.00613,-0.00643,-0.00541,0.03389,-0.00388,-9.79345,40.050,40.949,41.483,48.642,0.22374,0.04820,-0.02084
9.603,-0.00622,-0.00665,-0.00559,-0.01877,-0.01530,-9.77835,40.050,40.949,41.483,48.421,0.11227,0.06204,-0.02081
9.613,-0.00640,-0.00696,-0.00563,0.03159,-0.00072,-9.80388,40.050,40.949,41.483,48.421,0.20031,-0.00836,-0.02102
9.623,-0.00649,-0.00705,-0.00572,0.01855,-0.00685,-9.77931,40.050,40.949,41.483,48.642,0.10070,0.04435,-0.02089
9.633,-0.00645,-0.00696,-0.00563,0.01536,0.00971,-9.75671,40.050,40.949,41.483,48.421,0.08913,-0.06738,-0.02108
9.643,-0.00644,-0.00678,-0.00541,0.02271,0.01935,-9.77440,40.050,40.954,41.483,48.421,0.16666,-0.14859,-0.02127
9.653,-0.00649,-0.00678,-0.00532,-0.00506,-0.02160,-9.78931,40.050,40.954,41.483,48.421,0.10130,-0.05705,-0.02107
9.663,-0.00658,-0.00701,-0.00537,-0.01054,0.02662,-9.75690,40.050,40.954,41.483,48.421,0.00548,-0.11535,-0.02113
9.673,-0.00671,-0.00718,-0.00563,0.00812,-0.01996,-9.75519,40.050,40.954,41.483,48.531,0.02542,-0.00530,-0.02111
9.683,-0.00685,-0.00723,-0.00577,-0.01008,0.01956,-9.82529,40.050,40.954,41.483,48.531,-0.04322,-0.09398,-0.02111
9.693,-0.00689,-0.00696,-0.00595,-0.02907,-0.00428,-9.79875,40.050,40.954,41.483,48.310,-0.12526,-0.01701,-0.02122
9.703,-0.00689,-0.00696,-0.00604,-0.01047,-0.00081,-9.75662,40.050,40.954,41.483,48.421,-0.01913,0.01920,-0.02129
9.713,-0.00684,-0.00669,-0.00604,-0.01511,-0.02257,-9.80655,40.050,40.954,41.483,48.752,-0.07807,0.11518,-0.02138
9.723,-0.00675,-0.00642,-0.00590,0.00704,0.02141,-9.76063,40.050,40.954,41.483,48.421,-0.02819,0.01452,-0.02131
9.733,-0.00662,-0.00607,-0.00564,-0.00313,0.04363,-9.77978,40.050,40.954,41.483,48.421,-0.02409,-0.09779,-0.02127
9.743,-0.00649,-0.00580,-0.00532,0.01113,0.02231,-9.80327,40.050,40.954,41.487,48.531,0.08181,-0.13654,-0.02129
9.753,-0.00653,-0.00580,-0.00510,-0.01239,0.01529,-9.81243,40.050,40.954,41.487,48.421,-0.02627,-0.10341,-0.02128
9.763,-0.00662,-0.00576,-0.00514,-0.00328,0.00512,-9.80809,40.050,40.954,41.487,48.421,-0.01538,0.00939,-0.02133
9.773,-0.00671,-0.00576,-0.00528,0.01101,0.03139,-9.75619,40.050,40.954,41.487,48.310,0.02770,-0.09490,-0.02134
9.783,-0.00666,-0.00558,-0.00537,0.00954,0.01379,-9.79245,40.050,40.954,41.487,48.421,0.12846,-0.04386,-0.02128
9.793,-0.00662,-0.00545,-0.00555,0.00304,-0.02449,-9.76725,40.049,40.954,41.487,48.310,0.07119,0.05317,-0.02112
9.803,-0.00653,-0.00513,-0.00550,0.02023,0.01098,-9.79694,40.049,40.954,41.487,48.421,0.11329,-0.05161,-0.02129
9.813,-0.00648,-0.00509,-0.00546,-0.00519,-0.00114,-9.78439,40.049,40.954,41.487,48.421,0.00866,-0.00918,-0.02125
9.823,-0.00648,-0.00509,-0.00546,-0.04312,0.03794,-9.78402,40.049,40.954,41.487,48.421,-0.07883,-0.08054,-0.02122
9.833,-0.00648,-0.00509,-0.00541,-0.00534,0.02444,-9.80277,40.049,40.954,41.487,48.421,-0.01011,-0.17048,-0.02116
9.843,-0.00644,-0.00527,-0.00528,0.01586,-0.00916,-9.77328,40.049,40.952,41.487,48.421,0.03708,-0.06786,-0.02114
9.853,-0.00635,-0.00536,-0.00532,0.00511,-0.01138,-9.76720,40.049,40.952,41.487,48.421,0.03112,0.04466,-0.02108
9.863,-0.00626,-0.00540,-0.00555,0.03543,-0.00468,-9.79065,40.049,40.952,41.487,48.421,0.14340,0.03366,-0.02111
9.873,-0.00617,-0.00562,-0.00568,0.00838,0.00792,-9.77236,40.049,40.952,41.487,48.310,0.05756,-0.03930,-0.02125
9.883,-0.00608,-0.00585,-0.00577,0.02190,0.01824,-9.78405,40.049,40.952,41.487,48.531,0.13903,-0.11716,-0.02139
9.893,-0.00595,-0.00598,-0.00572,0.00345,0.01849,-9.79199,40.049,40.952,41.487,48.531,0.02649,-0.10868,-0.02139
9.903,-0.00582,-0.00616,-0.00572,0.05683,0.01703,-9.77619,40.049,40.952,41.487,48.421,0.13917,-0.10542,-0.02140
9.913,-0.00577,-0.00625,-0.00581,0.01176,0.04356,-9.80359,40.049,40.952,41.487,48.310,0.09088,-0.20765,-0.02160
9.923,-0.00573,-0.00612,-0.00577,-0.00785,-0.03241,-9.78210,40.049,40.952,41.487,48.310,0.05409,-0.10082,-0.02149
9.933,-0.00577,-0.00625,-0.00568,0.02393,0.03258,-9.80088,40.049,40.952,41.487,48.310,0.13235,-0.18263,-0.02162
9.943,-0.00577,-0.00629,-0.00555,-0.00871,0.01457,-9.74289,40.049,40.952,41.486,48.421,0.03282,-0.13008,-0.02155
9.953,-0.00573,-0.00638,-0.00519,0.00480,-0.00913,-9.75030,40.049,40.952,41.486,48.310,0.03001,-0.01801,-0.02150
9.963,-0.00578,-0.00634,-0.00492,0.03016,0.03788,-9.79245,40.049,40.952,41.486,48.310,0.09561,-0.10926,-0.02161
9.973,-0.00587,-0.00634,-0.00483,0.03219,0.00880,-9.77128,40.049,40.952,41.486,48.421,0.19107,-0.05014,-0.02145
9.983,-0.00596,-0.00643,-0.00487,0.01863,-0.00224,-9.77246,40.049,40.952,41.486,48.421,0.10228,0.01851,-0.02129
9.993,-0.00604,-0.00647,-0.00487,-0.00872,-0.01198,-9.76874,40.051,40.952,41.486,48.531,-0.00398,0.05435,-0.02126
10.003,-0.00622,-0.00656,-0.00505,-0.02476,0.00419,-9.80196,40.051,40.952,41.486,48.421,-0.10219,-0.00063,-0.02121
10.013,-0.00627,-0.00661,-0.00523,-0.02409,0.02851,-9.79984,40.051,40.952,41.486,48.310,-0.12780,-0.11055,-0.02099
10.023,-0.00640,-0.00652,-0.00541,0.01277,0.02374,-9.77875,40.051,40.952,41.486,48.531,-0.01614,-0.12628,-0.02098
10.033,-0.00635,-0.00638,-0.00537,0.00735,-0.00937,-9.79173,40.051,40.952,41.486,48.310,0.01890,-0.01896,-0.02098
10.043,-0.00627,-0.00634,-0.00510,0.01325,-0.00296,-9.77203,40.051,40.942,41.486,48.421,0.11480,0.04025,-0.02092
10.053,-0.00632,-0.00634,-0.00479,0.00722,-0.02018,-9.79419,40.051,40.942,41.486,48.531,0.03777,0.12279,-0.02081
10.063,-0.00645,-0.00652,-0.00478,0.00384,0.02045,-9.79842,40.051,40.942,41.486,48.421,0.03061,0.00990,-0.02088
10.073,-0.00658,-0.00656,-0.00496,-0.02001,-0.04919,-9.80141,40.051,40.942,41.486,48.531,-0.02259,0.10996,-0.02087
10.083,-0.00676,-0.00669,-0.00523,-0.01974,-0.05610,-9.81149,40.051,40.942,41.486,48.531,-0.06706,0.21438,-0.02095
10.093,-0.00680,-0.00660,-0.00546,-0.01525,0.03818,-9.82759,40.051,40.942,41.486,48.531,-0.07273,0.10111,-0.02083
10.103,-0.00689,-0.00674,-0.00572,0.02832,0.00417,-9.76404,40.051,40.942,41.486,48.421,0.02727,0.04852,-0.02082
10.113,-0.00703,-0.00678,-0.00586,0.02156,0.00064,-9.82312,40.051,40.942,41.486,48.531,0.12714,-0.00446,-0.02090
10.123,-0.00716,-0.00682,-0.00599,0.04498,0.02495,-9.79057,40.051,40.942,41.486,48.863,0.20552,-0.08602,-0.02114
10.133,-0.00716,-0.00683,-0.00595,0.01772,-0.01538,-9.76929,40.051,40.942,41.486,48.421,0.14914,0.01172,-0.02086
10.143,-0.00716,-0.00678,-0.00577,0.01206,0.02759,-9.77350,40.051,40.942,41.488,48.421,0.10269,-0.09097,-0.02109
10.153,-0.00712,-0.00674,-0.00550,0.00516,0.02765,-9.77025,40.051,40.942,41.488,48.421,0.02245,-0.16987,-0.02119
10.163,-0.00721,-0.00660,-0.00541,0.02004,-0.04003,-9.79394,40.051,40.942,41.488,48.310,0.04818,-0.06013,-0.02113
10.173,-0.00729,-0.00656,-0.00563,-0.00114,0.01618,-9.78032,40.051,40.942,41.488,48.531,-0.04712,-0.12032,-0.02114
10.183,-0.00729,-0.00665,-0.00599,-0.02505,-0.03034,-9.76672,40.051,40.942,41.488,48.310,-0.08282,-0.01368,-0.02128
10.193,-0.00716,-0.00647,-0.00617,0.03229,-0.05229,-9.76069,40.048,40.942,41.488,48.310,-0.01019,0.07183,-0.02136
10.203,-0.00702,-0.00638,-0.00635,-0.02580,-0.01114,-9.83016,40.048,40.942,41.488,48.310,-0.12239,0.06629,-0.02136
10.213,-0.00689,-0.00629,-0.00653,-0.00711,0.03602,-9.79709,40.048,40.942,41.488,48.531,-0.09085,-0.04185,-0.02118
10.223,-0.00680,-0.00629,-0.00653,-0.00663,0.01365,-9.80724,40.048,40.942,41.488,48.421,0.00051,-0.10836,-0.02115
10.233,-0.00667,-0.00602,-0.00635,0.03402,-0.00091,-9.76610,40.048,40.942,41.488,48.531,0.09838,-0.05247,-0.02112
10.243,-0.00658,-0.00611,-0.00608,0.05854,-0.02654,-9.80293,40.048,40.946,41.488,48.642,0.18444,0.02080,-0.02095
10.253,-0.00658,-0.00620,-0.00568,0.00899,-0.03412,-9.78984,40.048,40.946,41.488,48.421,0.11735,0.11183,-0.02072
10.263,-0.00658,-0.00611,-0.00546,-0.03881,0.04482,-9.77959,40.048,40.946,41.488,48.310,0.04083,0.02870,-0.02084
10.273,-0.00658,-0.00598,-0.00555,0.00028,0.03502,-9.76295,40.048,40.946,41.488,48.310,0.02225,-0.08240,-0.02091
10.283,-0.00658,-0.00602,-0.00586,0.00029,-0.02320,-9.79095,40.048,40.946,41.488,48.421,0.01165,0.02988,-0.02089
10.293,-0.00658,-0.00611,-0.00617,0.00907,0.01311,-9.81416,40.048,40.946,41.488,48.310,0.05255,-0.07550,-0.02096
10.303,-0.00658,-0.00625,-0.00617,0.03707,0.02877,-9.75795,40.048,40.946,41.488,48.531,0.15055,-0.13097,-0.02107
10.313,-0.00662,-0.00634,-0.00604,-0.02535,0.01455,-9.78341,40.048,40.946,41.488,48.421,0.03919,-0.11393,-0.02105
10.323,-0.00667,-0.00598,-0.00595,0.00788,0.00887,-9.81216,40.048,40.946,41.488,48.642,0.05149,-0.00166,-0.02097
10.333,-0.00658,-0.00602,-0.00572,0.02146,0.00930,-9.76840,40.048,40.946,41.488,48.531,0.14335,-0.06696,-0.02109
10.343,-0.00653,-0.00607,-0.00550,0.00014,0.02462,-9.76983,40.048,40.946,41.484,48.531,0.04447,-0.12068,-0.02119
10.353,-0.00649,-0.00620,-0.00559,-0.01712,0.00256,-9.80442,40.048,40.946,41.484,48.531,-0.04665,-0.05403,-0.02120
10.363,-0.00653,-0.00643,-0.00572,-0.01110,0.00922,-9.75014,40.048,40.946,41.484,48.421,-0.15904,-0.05485,-0.02121
10.373,-0.00658,-0.00629,-0.00572,0.00575,0.02435,-9.81288,40.048,40.946,41.484,48.752,-0.05637,-0.10140,-0.02114
10.383,-0.00658,-0.00625,-0.00590,-0.00362,-0.05472,-9.81841,40.048,40.946,41.484,48.531,-0.04696,0.01112,-0.02125
10.393,-0.00662,-0.00629,-0.00608,-0.00416,-0.01198,-9.78243,40.055,40.946,41.484,48.531,-0.00665,0.11654,-0.02131
10.403,-0.00667,-0.00647,-0.00613,0.01092,-0.00211,-9.78247,40.055,40.946,41.484,48.531,0.05666,0.02311,-0.02136
10.413,-0.00667,-0.00638,-0.00599,-0.01966,-0.01789,-9.80449,40.055,40.946,41.484,48.752,-0.04558,0.07163,-0.02137
10.423,-0.00662,-0.00651,-0.00586,0.04668,-0.03115,-9.77595,40.055,40.946,41.484,48.752,0.06113,0.10871,-0.02137
10.433,-0.00658,-0.00634,-0.00572,0.01357,-0.00915,-9.76884,40.055,40.946,41.484,48.421,0.09698,0.00182,-0.02153
10.443,-0.00646,-0.00634,-0.00572,0.02813,-0.01439,-9.75769,40.055,40.917,41.484,48.531,0.16846,0.08851,-0.02134
10.453,-0.00641,-0.00660,-0.00563,0.04998,-0.01266,-9.77146,40.055,40.917,41.484,48.310,0.28000,0.07573,-0.02140
10.463,-0.00655,-0.00674,-0.00559,0.03337,-0.01272,-9.80314,40.055,40.917,41.484,48.421,0.16732,0.07389,-0.02142
10.473,-0.00659,-0.00660,-0.00559,-0.01647,-0.00710,-9.80687,40.055,40.917,41.484,48.642,0.05509,0.06007,-0.02145
10.483,-0.00655,-0.00652,-0.00550,0.02930,-0.00306,-9.79222,40.055,40.917,41.484,48.531,0.16145,0.02151,-0.02152
10.493,-0.00646,-0.00634,-0.00541,-0.00601,0.03294,-9.80112,40.055,40.917,41.484,48.421,0.08478,-0.06199,-0.02172
10.503,-0.00637,-0.00611,-0.00550,-0.02012,-0.03189,-9.78003,40.055,40.917,41.484,48.421,0.01329,0.02577,-0.02165
10.513,-0.00623,-0.00598,-0.00550,-0.01833,-0.00048,-9.81327,40.055,40.917,41.484,48.531,-0.09807,0.00450,-0.02164
10.523,-0.00614,-0.00589,-0.00541,0.00478,-0.03055,-9.80025,40.055,40.917,41.484,48.421,-0.03153,0.09647,-0.02174
10.533,-0.00614,-0.00563,-0.00537,-0.01161,-0.00355,-9.74416,40.055,40.917,41.484,48.310,-0.08087,-0.00498,-0.02166
10.543,-0.00619,-0.00563,-0.00532,0.00777,-0.00197,-9.80738,40.055,40.917,41.483,48.421,0.03132,0.00967,-0.02167
10.553,-0.00623,-0.00549,-0.00528,0.02518,-0.00039,-9.77168,40.055,40.917,41.483,48.531,0.14400,0.00253,-0.02168
10.563,-0.00628,-0.00549,-0.00532,0.02946,0.04681,-9.80125,40.055,40.917,41.483,48.752,0.15550,-0.11005,-0.02198
10.573,-0.00623,-0.00522,-0.00519,0.02628,0.00083,-9.79018,40.055,40.917,41.483,48.531,0.15367,0.00312,-0.02168
10.583,-0.00623,-0.00527,-0.00515,-0.01661,0.03053,-9.75042,40.055,40.917,41.483,48.642,0.06255,-0.06308,-0.02181
10.593,-0.00619,-0.00514,-0.00519,-0.03591,-0.00115,-9.78905,40.052,40.917,41.483,48.531,-0.04668,-0.03513,-0.02181
10.603,-0.00614,-0.00518,-0.00541,0.00178,-0.02238,-9.80543,40.052,40.917,41.483,48.531,-0.00988,0.07181,-0.02187
10.613,-0.00632,-0.00536,-0.00564,-0.04765,0.01878,-9.80901,40.052,40.917,41.483,48.421,-0.10378,0.00831,-0.02181
10.623,-0.00645,-0.00536,-0.00591,0.02380,-0.01735,-9.77899,40.052,40.917,41.483,48.421,0.00189,0.04884,-0.02187
10.633,-0.00654,-0.00571,-0.00617,0.02596,0.03555,-9.77676,40.052,40.917,41.483,48.531,0.05889,-0.04875,-0.02193
