#2025/09/15 12:19:01
# data rotate to sensor frame
time,wx,wy,wz,ax,ay,az,T,pitch,roll,yaw
0.000,0.00612,0.00662,0.00528,-0.00441,0.02312,9.76819,40.071,40.951,41.509,48.531,-0.04570,-0.02074,-0.00031
0.017,0.00598,0.00631,0.00505,0.01666,0.03034,9.79116,40.071,40.951,41.509,48.531,-0.13034,0.05502,-0.00048
0.027,0.00634,0.00622,0.00501,-0.01041,0.00997,9.76140,40.071,40.951,41.509,48.531,-0.07093,-0.04124,-0.00036
0.037,0.00647,0.00636,0.00514,-0.01278,0.03881,9.78496,40.071,40.951,41.509,48.642,-0.18153,-0.06505,-0.00036
0.047,0.00647,0.00649,0.00541,0.01916,-0.00468,9.75276,40.071,40.951,41.509,48.310,-0.09582,0.00777,-0.00059
0.057,0.00629,0.00640,0.00545,0.02651,0.00787,9.80700,40.071,40.951,41.509,48.642,-0.05962,0.11469,-0.00079
0.067,0.00607,0.00618,0.00537,0.00705,-0.00700,9.79132,40.071,40.951,41.509,48.531,0.03161,0.04796,-0.00082
0.077,0.00585,0.00591,0.00532,-0.02143,-0.02224,9.80856,40.071,40.951,41.509,48.642,0.08749,-0.05065,-0.00098
0.087,0.00576,0.00568,0.00528,-0.01579,0.03453,9.77894,40.071,40.951,41.510,48.421,-0.02455,-0.06689,-0.00104
0.097,0.00576,0.00573,0.00510,0.02031,-0.02177,9.80311,40.071,40.951,41.510,48.421,0.04717,0.02082,-0.00107
0.107,0.00585,0.00604,0.00492,0.00212,-0.01625,9.79456,40.071,40.951,41.510,48.752,0.15885,0.00117,-0.00115
0.117,0.00581,0.00613,0.00483,0.02221,0.01623,9.79729,40.071,40.951,41.510,48.752,0.05755,0.05246,-0.00110
0.127,0.00585,0.00604,0.00501,0.00521,-0.01393,9.79014,40.071,40.951,41.510,48.531,0.14110,-0.02433,-0.00128
0.137,0.00572,0.00600,0.00537,0.01467,0.03454,9.79153,40.071,40.951,41.510,48.752,0.03301,0.01030,-0.00129
0.147,0.00558,0.00604,0.00550,-0.02443,-0.02006,9.77959,40.071,40.951,41.510,48.531,0.08763,-0.08897,-0.00144
0.157,0.00527,0.00608,0.00528,0.01436,-0.02544,9.75767,40.071,40.951,41.510,48.531,0.12545,0.01722,-0.00129
0.167,0.00523,0.00600,0.00496,0.00802,0.00914,9.79244,40.071,40.951,41.510,48.421,0.01399,0.03565,-0.00131
0.177,0.00509,0.00591,0.00474,-0.02376,0.01911,9.78622,40.071,40.951,41.510,48.642,-0.05209,-0.05606,-0.00134
0.187,0.00536,0.00594,0.00461,0.04174,0.01058,9.76162,40.071,40.980,41.510,48.421,-0.05588,0.05642,-0.00148
0.197,0.00572,0.00608,0.00456,-0.04343,-0.04144,9.76394,40.071,40.980,41.510,48.421,0.02191,-0.02465,-0.00150
0.207,0.00572,0.00608,0.00447,0.00834,0.04067,9.81077,40.071,40.980,41.510,48.421,-0.08662,0.00597,-0.00156
0.217,0.00585,0.00608,0.00461,0.01349,-0.02006,9.76528,40.071,40.980,41.510,48.531,0.01920,0.04385,-0.00163
0.227,0.00612,0.00603,0.00483,0.00509,0.03095,9.78427,40.071,40.980,41.510,48.421,-0.09314,0.03592,-0.00167
0.237,0.00603,0.00590,0.00496,-0.01716,0.02107,9.77458,40.071,40.980,41.510,48.531,-0.11762,-0.07392,-0.00152
0.247,0.00616,0.00581,0.00501,0.00530,0.03604,9.81239,40.071,40.980,41.510,48.310,-0.19244,0.01049,-0.00179
0.257,0.00616,0.00581,0.00487,0.00782,-0.00470,9.78648,40.071,40.980,41.510,48.421,-0.08108,0.02830,-0.00188
0.267,0.00621,0.00581,0.00465,0.03210,-0.06925,9.79618,40.071,40.980,41.510,48.310,0.02627,0.06348,-0.00193
0.277,0.00630,0.00586,0.00460,0.03745,0.00637,9.78213,40.071,40.980,41.510,48.531,-0.01647,0.16803,-0.00197
0.287,0.00612,0.00590,0.00469,0.01356,-0.04216,9.81123,40.071,40.980,41.511,48.531,0.09073,0.13171,-0.00204
0.297,0.00603,0.00599,0.00487,-0.02367,-0.01092,9.75662,40.071,40.980,41.511,48.421,0.07965,0.01945,-0.00225
0.307,0.00607,0.00608,0.00496,0.01567,-0.01042,9.77127,40.071,40.980,41.511,48.310,0.05164,0.12844,-0.00217
0.317,0.00603,0.00612,0.00505,-0.02139,-0.04690,9.77652,40.071,40.980,41.511,48.421,0.12590,0.04390,-0.00235
0.327,0.00572,0.00612,0.00514,0.01242,0.02763,9.79679,40.071,40.980,41.511,48.642,0.01362,0.05505,-0.00239
0.337,0.00589,0.00612,0.00519,0.00327,-0.00749,9.77200,40.047,40.980,41.511,48.531,0.08622,-0.03105,-0.00251
0.347,0.00589,0.00608,0.00519,0.00938,-0.03351,9.77176,40.047,40.980,41.511,48.531,0.17485,0.03807,-0.00240
0.357,0.00567,0.00608,0.00519,0.04853,0.01991,9.77447,40.047,40.980,41.511,48.642,0.08894,0.11057,-0.00228
0.367,0.00549,0.00607,0.00537,-0.02421,-0.00206,9.76864,40.047,40.980,41.511,48.310,0.05620,0.00311,-0.00247
0.377,0.00540,0.00612,0.00546,0.03688,-0.00253,9.76006,40.047,40.980,41.511,48.531,0.03485,0.11304,-0.00243
0.387,0.00562,0.00616,0.00550,0.00440,-0.01658,9.80503,40.047,40.977,41.511,48.421,0.09994,0.02125,-0.00258
0.397,0.00580,0.00612,0.00550,0.00743,-0.02182,9.83361,40.047,40.977,41.511,48.531,0.18724,0.09211,-0.00246
0.407,0.00567,0.00612,0.00532,-0.03981,-0.02486,9.77512,40.047,40.977,41.511,48.310,0.17296,-0.01949,-0.00285
0.417,0.00589,0.00612,0.00541,0.00807,0.01670,9.75782,40.047,40.977,41.511,48.531,0.06403,0.00732,-0.00285
0.427,0.00594,0.00617,0.00554,0.01374,-0.01500,9.78536,40.047,40.977,41.511,48.531,0.09871,0.11406,-0.00276
0.437,0.00594,0.00621,0.00563,-0.01293,-0.01111,9.77718,40.047,40.977,41.511,48.642,0.07909,0.00341,-0.00298
0.447,0.00594,0.00616,0.00563,0.01709,0.03374,9.77104,40.047,40.977,41.511,48.531,-0.02691,0.04038,-0.00301
0.457,0.00625,0.00617,0.00554,-0.02241,0.00948,9.76858,40.047,40.977,41.511,48.642,-0.04542,-0.07026,-0.00299
0.467,0.00634,0.00626,0.00545,0.02947,0.02245,9.79809,40.047,40.977,41.511,48.752,-0.08301,0.03571,-0.00316
0.477,0.00629,0.00639,0.00536,0.00224,0.01400,9.77309,40.047,40.977,41.511,48.310,-0.07833,-0.07663,-0.00305
0.487,0.00625,0.00639,0.00536,-0.00846,-0.02454,9.76119,40.047,40.977,41.508,48.421,0.03293,-0.06318,-0.00310
0.497,0.00629,0.00630,0.00532,-0.00523,-0.00378,9.76350,40.047,40.977,41.508,48.421,-0.00241,0.04304,-0.00313
0.507,0.00616,0.00617,0.00514,-0.01705,0.00235,9.79960,40.047,40.977,41.508,48.531,-0.01135,-0.06906,-0.00316
0.517,0.00589,0.00603,0.00496,0.01159,-0.02466,9.77133,40.047,40.977,41.508,48.531,0.07295,0.00500,-0.00316
0.527,0.00581,0.00599,0.00474,-0.02753,-0.02883,9.80736,40.047,40.977,41.508,48.421,0.12916,-0.09274,-0.00337
0.537,0.00576,0.00603,0.00478,-0.00709,-0.01868,9.78770,40.016,40.977,41.508,48.531,0.08847,0.01244,-0.00321
0.547,0.00576,0.00599,0.00483,-0.03610,0.01249,9.79987,40.016,40.977,41.508,48.531,0.02220,-0.07925,-0.00334
0.557,0.00598,0.00590,0.00492,0.00840,-0.02881,9.80631,40.016,40.977,41.508,48.531,0.10731,-0.00449,-0.00330
0.567,0.00589,0.00590,0.00514,-0.02788,0.03562,9.80300,40.016,40.977,41.508,48.531,0.00579,-0.05551,-0.00340
0.577,0.00585,0.00590,0.00532,0.04140,0.01996,9.81545,40.016,40.977,41.508,48.421,-0.03751,0.04951,-0.00348
0.587,0.00567,0.00586,0.00532,0.06946,0.01021,9.78627,40.016,40.954,41.508,48.642,-0.04462,0.16274,-0.00361
0.597,0.00554,0.00577,0.00519,-0.00370,-0.01249,9.79170,40.016,40.954,41.508,48.421,0.01639,0.06703,-0.00363
0.607,0.00540,0.00573,0.00496,0.00482,-0.00101,9.75308,40.016,40.954,41.508,48.531,-0.01316,-0.04200,-0.00367
0.617,0.00549,0.00568,0.00474,0.00811,0.02648,9.81286,40.016,40.954,41.508,48.531,-0.10886,0.01838,-0.00378
0.627,0.00558,0.00577,0.00474,-0.01636,0.01041,9.79635,40.016,40.954,41.508,48.642,-0.06496,-0.08607,-0.00366
0.637,0.00576,0.00595,0.00496,-0.00496,0.00012,9.77957,40.016,40.954,41.508,48.531,0.01961,-0.01105,-0.00374
0.647,0.00580,0.00613,0.00523,-0.03352,-0.03742,9.78487,40.016,40.954,41.508,48.310,0.10244,-0.08804,-0.00386
0.657,0.00571,0.00622,0.00554,0.01190,-0.01319,9.75679,40.016,40.954,41.508,48.752,0.08481,0.02315,-0.00373
0.667,0.00602,0.00631,0.00563,0.03077,0.01209,9.79253,40.016,40.954,41.508,48.310,0.00534,0.10321,-0.00372
0.677,0.00607,0.00640,0.00545,-0.04686,0.02031,9.76480,40.016,40.954,41.508,48.421,-0.02990,-0.00373,-0.00374
0.687,0.00598,0.00653,0.00510,0.02042,-0.01691,9.76288,40.016,40.954,41.507,48.310,0.05117,0.07384,-0.00377
0.697,0.00603,0.00653,0.00469,-0.04211,-0.02528,9.77351,40.016,40.954,41.507,48.531,0.08362,-0.03365,-0.00394
0.707,0.00607,0.00649,0.00438,-0.01986,-0.01083,9.76991,40.016,40.954,41.507,48.531,0.05712,-0.14269,-0.00410
0.717,0.00589,0.00649,0.00438,-0.00828,0.00863,9.81087,40.016,40.954,41.507,48.421,-0.02755,-0.06850,-0.00412
0.727,0.00580,0.00658,0.00470,-0.01037,-0.01478,9.82063,40.016,40.954,41.507,48.531,0.08488,-0.06062,-0.00417
0.737,0.00611,0.00662,0.00501,-0.03310,-0.01090,9.79518,40.037,40.954,41.507,48.531,0.06712,-0.17223,-0.00436
0.747,0.00629,0.00680,0.00523,-0.00369,0.02316,9.77945,40.037,40.954,41.507,48.421,-0.02354,-0.10500,-0.00437
0.757,0.00634,0.00689,0.00519,0.02917,-0.01594,9.79347,40.037,40.954,41.507,48.421,0.02050,-0.00101,-0.00442
0.767,0.00603,0.00684,0.00505,-0.01274,-0.00525,9.80811,40.037,40.954,41.507,48.531,0.03599,-0.11329,-0.00452
0.777,0.00620,0.00671,0.00501,-0.01322,-0.02298,9.78689,40.037,40.954,41.507,48.421,0.14234,-0.07458,-0.00449
0.787,0.00629,0.00658,0.00492,0.01306,0.00043,9.81060,40.037,40.952,41.507,48.531,0.06372,0.00720,-0.00440
0.797,0.00634,0.00636,0.00483,0.01022,-0.01387,9.79137,40.037,40.952,41.507,48.531,0.09933,0.11484,-0.00428
0.807,0.00634,0.00627,0.00478,0.01789,-0.01563,9.81111,40.037,40.952,41.507,48.531,0.02968,0.02500,-0.00442
0.817,0.00638,0.00618,0.00478,0.01081,-0.00155,9.80095,40.037,40.952,41.507,48.752,-0.02443,0.12500,-0.00445
0.827,0.00661,0.00618,0.00487,-0.01645,-0.04831,9.79907,40.037,40.952,41.507,48.752,0.06781,0.05842,-0.00452
0.837,0.00652,0.00627,0.00523,-0.00043,0.00862,9.78075,40.037,40.952,41.507,48.531,-0.03317,0.00638,-0.00459
0.847,0.00678,0.00631,0.00541,-0.03756,-0.03239,9.81297,40.037,40.952,41.507,48.310,0.04652,-0.07464,-0.00464
0.857,0.00696,0.00636,0.00536,-0.03772,0.01975,9.79661,40.037,40.952,41.507,48.531,-0.03801,-0.15077,-0.00469
0.867,0.00678,0.00645,0.00527,0.03952,-0.01576,9.81241,40.037,40.952,41.507,48.752,-0.00137,-0.04314,-0.00477
0.877,0.00661,0.00649,0.00519,-0.05734,0.02060,9.77400,40.037,40.952,41.507,48.752,-0.04424,-0.14824,-0.00477
0.887,0.00652,0.00653,0.00523,0.00795,0.02896,9.75293,40.037,40.952,41.505,48.642,-0.10553,-0.05349,-0.00494
0.897,0.00678,0.00653,0.00523,-0.02966,-0.00209,9.77867,40.037,40.952,41.505,48.642,-0.02669,-0.13413,-0.00489
0.907,0.00674,0.00645,0.00519,0.02619,0.00971,9.78649,40.037,40.952,41.505,48.310,-0.03853,-0.02197,-0.00499
0.917,0.00669,0.00653,0.00514,0.01425,-0.03296,9.80636,40.037,40.952,41.505,48.421,0.06442,0.02487,-0.00502
0.927,0.00634,0.00671,0.00523,0.01206,-0.00426,9.78730,40.037,40.952,41.505,48.531,-0.00957,0.11048,-0.00503
0.937,0.00611,0.00676,0.00537,0.02436,0.00733,9.76880,40.067,40.952,41.505,48.531,-0.09066,0.18899,-0.00514
0.947,0.00594,0.00671,0.00550,0.03568,-0.03818,9.77753,40.067,40.952,41.505,48.752,0.02184,0.19612,-0.00519
0.957,0.00571,0.00671,0.00555,0.01397,0.01060,9.74984,40.067,40.952,41.505,48.642,-0.04488,0.10572,-0.00522
0.967,0.00585,0.00662,0.00546,0.02136,0.01065,9.73741,40.067,40.952,41.505,48.531,-0.11915,0.18915,-0.00539
0.977,0.00554,0.00649,0.00550,-0.05669,0.02680,9.78804,40.067,40.952,41.505,48.310,-0.12728,0.07739,-0.00519
0.987,0.00545,0.00641,0.00568,-0.01646,0.00897,9.82651,40.067,40.920,41.505,48.310,-0.08278,-0.02565,-0.00504
0.997,0.00549,0.00632,0.00586,-0.00924,0.02930,9.79749,40.067,40.920,41.505,48.642,-0.19000,-0.06007,-0.00501
1.007,0.00554,0.00618,0.00590,-0.02286,-0.02691,9.79330,40.067,40.920,41.505,48.531,-0.07974,-0.08351,-0.00500
1.017,0.00558,0.00605,0.00577,0.01644,0.00967,9.80896,40.067,40.920,41.505,48.421,-0.06528,0.02859,-0.00520
1.027,0.00554,0.00601,0.00572,0.00734,-0.02357,9.76969,40.067,40.920,41.505,48.531,0.04722,0.03652,-0.00525
1.037,0.00554,0.00610,0.00572,-0.02924,0.02482,9.78898,40.067,40.920,41.505,48.310,-0.02957,-0.04633,-0.00530
1.047,0.00545,0.00605,0.00577,0.00965,-0.06148,9.78599,40.067,40.920,41.505,48.310,0.07958,-0.01757,-0.00534
1.057,0.00545,0.00601,0.00586,0.01542,0.04864,9.75849,40.067,40.920,41.505,48.642,-0.02837,0.01433,-0.00538
1.067,0.00558,0.00605,0.00608,-0.02334,-0.00517,9.75459,40.067,40.920,41.505,48.531,0.01213,-0.09029,-0.00542
1.077,0.00576,0.00614,0.00635,0.01000,-0.02578,9.78660,40.067,40.920,41.505,48.421,0.08871,-0.00820,-0.00539
1.087,0.00611,0.00614,0.00639,-0.07365,-0.01708,9.80830,40.067,40.920,41.501,48.421,0.09162,-0.12096,-0.00563
1.097,0.00603,0.00618,0.00622,-0.05877,-0.00270,9.81231,40.067,40.920,41.501,48.531,0.05505,-0.22797,-0.00582
1.107,0.00620,0.00619,0.00586,-0.02317,0.00185,9.78752,40.067,40.920,41.501,48.421,-0.01068,-0.13601,-0.00583
1.117,0.00625,0.00619,0.00545,0.00381,-0.01178,9.74831,40.067,40.920,41.501,48.531,0.03994,-0.03564,-0.00584
1.127,0.00625,0.00614,0.00514,-0.00652,-0.04126,9.80792,40.067,40.920,41.501,48.531,0.15276,-0.03707,-0.00589
1.137,0.00638,0.00606,0.00510,-0.02876,0.01372,9.79668,40.073,40.920,41.501,48.421,0.05417,-0.09258,-0.00603
1.147,0.00643,0.00597,0.00532,0.02023,-0.01753,9.81033,40.073,40.920,41.501,48.310,0.07938,0.01784,-0.00595
1.157,0.00643,0.00592,0.00545,0.01382,-0.01620,9.76928,40.073,40.920,41.501,48.421,0.10646,0.12748,-0.00581
1.167,0.00638,0.00588,0.00541,-0.00066,0.05891,9.78692,40.073,40.920,41.501,48.421,-0.00210,0.09586,-0.00588
1.177,0.00638,0.00596,0.00550,-0.04041,-0.04287,9.78647,40.073,40.920,41.501,48.421,0.06631,0.00588,-0.00597
1.187,0.00638,0.00601,0.00568,-0.02067,-0.04229,9.77610,40.073,40.914,41.501,48.642,0.15873,-0.05888,-0.00614
1.197,0.00634,0.00606,0.00554,-0.02626,0.00790,9.76858,40.073,40.914,41.501,48.531,0.05651,-0.10632,-0.00628
1.207,0.00629,0.00610,0.00537,0.00571,-0.01592,9.76643,40.073,40.914,41.501,48.531,0.08513,0.00233,-0.00618
1.217,0.00616,0.00610,0.00523,-0.03940,0.02479,9.81628,40.073,40.914,41.501,48.531,0.00582,-0.07784,-0.00629
1.227,0.00607,0.00610,0.00505,0.03440,-0.05970,9.77483,40.073,40.914,41.501,48.642,0.09318,-0.00690,-0.00626
1.237,0.00589,0.00610,0.00496,-0.00409,-0.01439,9.79814,40.073,40.914,41.501,48.531,0.04039,-0.10673,-0.00642
1.247,0.00585,0.00601,0.00496,-0.01874,-0.04949,9.79706,40.073,40.914,41.501,48.421,0.15340,-0.10809,-0.00646
1.257,0.00554,0.00601,0.00514,-0.02425,-0.00203,9.77869,40.073,40.914,41.501,48.531,0.04354,-0.13451,-0.00655
1.267,0.00545,0.00610,0.00532,0.01849,-0.01807,9.76730,40.073,40.914,41.501,48.531,0.07156,-0.02544,-0.00647
1.277,0.00549,0.00632,0.00523,0.01999,-0.02221,9.78904,40.073,40.914,41.501,48.310,0.11431,0.07886,-0.00635
1.287,0.00567,0.00650,0.00519,-0.03238,-0.03131,9.77318,40.073,40.914,41.501,48.531,0.14237,-0.03026,-0.00663
1.297,0.00563,0.00655,0.00519,0.02616,0.01126,9.79090,40.073,40.914,41.501,48.531,0.05767,0.04421,-0.00654
1.307,0.00563,0.00650,0.00496,0.01811,0.02253,9.74336,40.073,40.914,41.501,48.531,-0.04900,0.07908,-0.00657
1.317,0.00598,0.00650,0.00452,0.02206,-0.00754,9.80666,40.073,40.914,41.501,48.531,0.05029,0.13221,-0.00660
1.327,0.00607,0.00642,0.00434,-0.00727,0.00237,9.77150,40.073,40.914,41.501,48.421,0.01147,0.02653,-0.00670
1.337,0.00603,0.00633,0.00438,-0.00630,0.03933,9.80388,40.072,40.914,41.501,48.421,-0.09777,-0.00217,-0.00670
1.347,0.00598,0.00619,0.00474,-0.07895,-0.02255,9.79745,40.072,40.914,41.501,48.531,-0.04725,-0.10338,-0.00660
1.357,0.00612,0.00610,0.00501,-0.00382,-0.02601,9.76483,40.072,40.914,41.501,48.421,0.05721,-0.06109,-0.00664
1.367,0.00625,0.00606,0.00523,0.00370,-0.01398,9.78008,40.072,40.914,41.501,48.421,0.08937,0.04688,-0.00655
1.377,0.00625,0.00623,0.00541,-0.00362,-0.04746,9.77701,40.072,40.914,41.501,48.310,0.19529,0.00862,-0.00668
1.387,0.00656,0.00631,0.00536,0.00216,0.00227,9.82502,40.072,40.965,41.501,48.642,0.08251,0.01074,-0.00672
1.397,0.00665,0.00631,0.00519,0.02419,-0.04562,9.77310,40.072,40.965,41.501,48.421,0.17432,0.07581,-0.00661
1.407,0.00647,0.00626,0.00501,-0.00727,0.00122,9.77352,40.072,40.965,41.501,48.531,0.08006,0.01430,-0.00678
1.417,0.00630,0.00604,0.00492,0.01067,-0.01543,9.78012,40.072,40.965,41.501,48.421,0.10364,0.12425,-0.00664
1.427,0.00634,0.00599,0.00483,0.03774,0.02357,9.75711,40.072,40.965,41.501,48.421,-0.00048,0.16608,-0.00664
1.437,0.00643,0.00595,0.00501,-0.01037,-0.02876,9.76884,40.072,40.965,41.501,48.421,0.06647,0.07618,-0.00673
1.447,0.00643,0.00590,0.00528,0.02684,-0.04212,9.77671,40.072,40.965,41.501,48.531,0.16868,0.12213,-0.00667
1.457,0.00647,0.00595,0.00536,-0.00329,-0.00338,9.76029,40.072,40.965,41.501,48.531,0.08751,0.04498,-0.00689
1.467,0.00647,0.00595,0.00536,-0.01371,-0.03994,9.76728,40.072,40.965,41.501,48.421,0.17250,-0.02772,-0.00709
1.477,0.00643,0.00595,0.00523,-0.01183,-0.03379,9.76243,40.072,40.965,41.501,48.531,0.23126,-0.12277,-0.00747
1.487,0.00629,0.00599,0.00532,0.00217,-0.04967,9.78589,40.072,40.965,41.502,48.531,0.27629,-0.02030,-0.00704
1.497,0.00634,0.00604,0.00545,0.00978,-0.03733,9.77822,40.072,40.965,41.502,48.421,0.20947,0.06967,-0.00671
1.507,0.00629,0.00599,0.00537,-0.00203,-0.00163,9.82181,40.072,40.965,41.502,48.421,0.10539,0.02723,-0.00687
1.517,0.00638,0.00595,0.00519,0.03561,-0.00855,9.80190,40.072,40.965,41.502,48.642,0.07233,0.13497,-0.00674
1.527,0.00634,0.00599,0.00501,0.01048,-0.00160,9.78688,40.072,40.965,41.502,48.531,-0.00105,0.04923,-0.00682
1.537,0.00634,0.00595,0.00505,0.03054,0.03204,9.79202,40.072,40.965,41.502,48.752,-0.09384,0.11360,-0.00691
1.547,0.00647,0.00599,0.00523,0.01159,-0.01858,9.75481,40.072,40.965,41.502,48.531,0.01586,0.08894,-0.00694
1.557,0.00647,0.00604,0.00550,-0.01526,-0.01873,9.80173,40.072,40.965,41.502,48.531,0.06830,-0.01097,-0.00705
1.567,0.00643,0.00604,0.00550,-0.03236,-0.04273,9.79978,40.072,40.965,41.502,48.421,0.14894,-0.09022,-0.00724
1.577,0.00634,0.00604,0.00545,-0.02679,-0.05040,9.78376,40.072,40.965,41.502,48.421,0.25173,-0.13717,-0.00744
1.587,0.00634,0.00604,0.00559,0.04643,0.00299,9.77053,40.072,40.969,41.502,48.531,0.18971,-0.04297,-0.00713
1.597,0.00625,0.00608,0.00559,-0.00995,-0.00110,9.77593,40.072,40.969,41.502,48.531,0.07738,-0.05243,-0.00718
1.607,0.00612,0.00621,0.00541,-0.01853,-0.00685,9.80970,40.072,40.969,41.502,48.642,0.01441,-0.14635,-0.00729
1.617,0.00621,0.00626,0.00519,0.02740,-0.00286,9.81068,40.072,40.969,41.502,48.642,0.01521,-0.03313,-0.00731
1.627,0.00616,0.00635,0.00496,0.01425,0.01069,9.77437,40.072,40.969,41.502,48.421,-0.04757,0.06085,-0.00737
1.637,0.00612,0.00648,0.00487,0.00388,-0.02856,9.77976,40.072,40.969,41.502,48.531,0.06358,0.04107,-0.00741
1.647,0.00567,0.00661,0.00501,-0.03447,-0.06269,9.80751,40.072,40.969,41.502,48.421,0.15193,-0.02979,-0.00758
1.657,0.00563,0.00661,0.00523,0.01904,0.05458,9.79909,40.072,40.969,41.502,48.421,0.04326,0.00271,-0.00756
1.667,0.00603,0.00661,0.00537,-0.05891,-0.03513,9.75298,40.072,40.969,41.502,48.531,0.09102,-0.09954,-0.00771
1.677,0.00594,0.00666,0.00537,-0.00938,0.01237,9.78471,40.072,40.969,41.502,48.421,-0.01788,-0.06986,-0.00773
1.687,0.00576,0.00661,0.00532,-0.03091,0.04391,9.76475,40.072,40.969,41.505,48.531,-0.11998,-0.11738,-0.00771
1.697,0.00585,0.00666,0.00541,0.00235,-0.03316,9.78741,40.072,40.969,41.505,48.421,-0.01605,-0.07402,-0.00780
1.707,0.00571,0.00666,0.00550,0.02113,0.05562,9.76009,40.072,40.969,41.505,48.421,-0.11081,-0.01365,-0.00791
1.717,0.00549,0.00666,0.00555,0.02344,0.00972,9.79894,40.072,40.969,41.505,48.310,-0.07286,0.09239,-0.00812
1.727,0.00554,0.00666,0.00555,0.03603,0.02292,9.79933,40.072,40.969,41.505,48.421,-0.12477,0.19267,-0.00834
1.737,0.00594,0.00661,0.00554,-0.01407,0.03099,9.74519,40.074,40.969,41.505,48.310,-0.14774,0.08263,-0.00811
1.747,0.00598,0.00652,0.00559,0.02221,0.00634,9.82388,40.074,40.969,41.505,48.531,-0.04415,0.12647,-0.00823
1.757,0.00607,0.00639,0.00568,0.01605,0.00549,9.82265,40.074,40.969,41.505,48.531,-0.00524,0.02067,-0.00823
1.767,0.00625,0.00626,0.00586,0.03075,-0.01482,9.78101,40.074,40.969,41.505,48.531,0.05104,0.11823,-0.00823
1.777,0.00665,0.00621,0.00599,0.03569,-0.01089,9.79146,40.074,40.969,41.505,48.310,0.06661,0.22993,-0.00816
1.787,0.00674,0.00626,0.00612,-0.02344,-0.02858,9.75350,40.074,40.970,41.505,48.421,0.09641,0.12154,-0.00836
1.797,0.00665,0.00635,0.00621,0.02373,-0.00990,9.78377,40.074,40.970,41.505,48.642,-0.00608,0.16793,-0.00836
1.807,0.00678,0.00630,0.00626,0.01373,-0.04305,9.77344,40.074,40.970,41.505,48.642,0.10034,0.13187,-0.00844
1.817,0.00709,0.00635,0.00612,0.02760,-0.02013,9.81078,40.074,40.970,41.505,48.642,0.15735,0.22908,-0.00827
1.827,0.00701,0.00635,0.00586,0.02538,0.01582,9.77962,40.074,40.970,41.505,48.531,0.05000,0.19453,-0.00837
1.837,0.00692,0.00630,0.00563,0.02868,-0.00902,9.79946,40.074,40.970,41.505,48.642,0.06143,0.08209,-0.00852
1.847,0.00714,0.00617,0.00554,0.02523,-0.00985,9.79342,40.074,40.970,41.505,48.531,0.05481,0.19496,-0.00844
1.857,0.00750,0.00608,0.00572,-0.04062,0.00969,9.78057,40.074,40.970,41.505,48.642,0.02656,0.08550,-0.00856
1.867,0.00727,0.00608,0.00599,-0.00838,0.01973,9.80237,40.074,40.970,41.505,48.421,-0.05569,0.00755,-0.00858
1.877,0.00741,0.00604,0.00626,-0.01161,0.00277,9.79118,40.074,40.970,41.505,48.531,-0.00322,-0.09285,-0.00858
1.887,0.00745,0.00617,0.00635,-0.00354,-0.01756,9.76600,40.074,40.970,41.508,48.531,0.09016,-0.02949,-0.00858
1.897,0.00741,0.00626,0.00626,0.00618,0.01170,9.76106,40.074,40.970,41.508,48.531,-0.01389,0.01354,-0.00859
1.907,0.00732,0.00626,0.00617,-0.00105,-0.02755,9.75440,40.074,40.970,41.508,48.531,0.09754,0.00099,-0.00865
1.917,0.00701,0.00621,0.00608,0.02442,0.00690,9.75513,40.074,40.970,41.508,48.531,0.01962,0.08129,-0.00860
1.927,0.00687,0.00604,0.00594,0.04258,-0.00011,9.77535,40.074,40.970,41.508,48.421,0.00704,0.19249,-0.00863
1.937,0.00674,0.00599,0.00577,0.04108,0.00516,9.74959,40.074,40.970,41.508,48.531,-0.06074,0.28118,-0.00872
1.947,0.00656,0.00590,0.00568,-0.05357,-0.01114,9.79550,40.074,40.970,41.508,48.531,-0.03758,0.17153,-0.00866
1.957,0.00661,0.00590,0.00572,0.01015,0.00969,9.83426,40.074,40.970,41.508,48.421,-0.05617,0.06090,-0.00860
1.967,0.00656,0.00599,0.00577,0.00571,-0.03447,9.72753,40.074,40.970,41.508,48.421,0.05462,0.04920,-0.00865
1.977,0.00647,0.00617,0.00572,-0.02630,0.00336,9.79112,40.074,40.970,41.508,48.531,0.01615,-0.05587,-0.00875
1.987,0.00612,0.00625,0.00550,0.00279,0.00285,9.76712,40.074,40.979,41.508,48.642,-0.03023,0.04582,-0.00880
1.997,0.00594,0.00612,0.00541,-0.02160,0.06710,9.78236,40.074,40.979,41.508,48.421,-0.13141,-0.00227,-0.00877
2.007,0.00585,0.00616,0.00532,-0.02342,-0.02107,9.81900,40.074,40.979,41.508,48.421,-0.03215,-0.05477,-0.00873
2.017,0.00576,0.00612,0.00523,0.01093,0.01996,9.80446,40.074,40.979,41.508,48.531,-0.09758,0.03701,-0.00886
2.027,0.00572,0.00612,0.00523,0.00034,0.01358,9.76866,40.074,40.979,41.508,48.531,-0.04633,-0.06318,-0.00877
2.037,0.00576,0.00616,0.00523,-0.00890,-0.05637,9.77301,40.074,40.979,41.508,48.421,0.06601,-0.05995,-0.00881
2.047,0.00580,0.00621,0.00514,-0.00397,-0.01639,9.77282,40.074,40.979,41.508,48.421,0.13722,0.02687,-0.00869
2.057,0.00567,0.00634,0.00514,-0.02078,-0.01339,9.81294,40.074,40.979,41.508,48.642,0.09547,-0.07786,-0.00893
2.067,0.00567,0.00639,0.00514,0.00546,0.03972,9.76412,40.074,40.979,41.508,48.421,-0.01119,-0.04224,-0.00893
2.077,0.00571,0.00648,0.00514,0.01943,-0.01789,9.81877,40.074,40.979,41.508,48.531,0.05596,0.04816,-0.00894
2.087,0.00571,0.00661,0.00519,-0.00240,0.00064,9.81174,40.074,40.979,41.508,48.310,-0.02233,-0.03337,-0.00899
2.097,0.00567,0.00674,0.00523,-0.01039,-0.00487,9.79887,40.074,40.979,41.506,48.421,0.07726,-0.08713,-0.00905
2.107,0.00580,0.00683,0.00523,-0.00316,0.01013,9.78193,40.074,40.979,41.506,48.421,-0.02382,-0.03639,-0.00907
2.117,0.00589,0.00688,0.00537,-0.01081,-0.03938,9.81071,40.074,40.979,41.506,48.421,0.08884,-0.04831,-0.00910
2.127,0.00589,0.00701,0.00537,-0.03037,-0.04693,9.79940,40.074,40.979,41.506,48.421,0.18189,-0.11322,-0.00930
2.137,0.00580,0.00701,0.00523,-0.03408,0.01168,9.78098,40.067,40.979,41.506,48.310,0.07476,-0.15023,-0.00941
2.147,0.00585,0.00701,0.00523,-0.00259,-0.04887,9.81200,40.067,40.979,41.506,48.421,0.17023,-0.08901,-0.00931
2.157,0.00585,0.00701,0.00537,0.01872,0.02037,9.78680,40.067,40.979,41.506,48.310,0.07670,-0.02491,-0.00920
2.167,0.00571,0.00697,0.00555,0.02596,-0.00296,9.78495,40.067,40.979,41.506,48.642,0.04062,0.08245,-0.00913
2.177,0.00567,0.00692,0.00559,-0.00957,-0.02992,9.76563,40.067,40.979,41.506,48.531,0.11935,0.00147,-0.00929
2.187,0.00558,0.00688,0.00559,0.00294,0.01331,9.79360,40.067,40.979,41.506,48.531,0.00662,0.01041,-0.00931
2.197,0.00567,0.00683,0.00568,0.01497,0.01530,9.77555,40.067,40.981,41.506,48.531,-0.08145,0.08103,-0.00939
2.207,0.00580,0.00674,0.00581,-0.02318,-0.05008,9.75161,40.067,40.981,41.506,48.421,0.01582,0.02472,-0.00940
2.217,0.00585,0.00665,0.00595,0.01290,-0.00355,9.76841,40.067,40.981,41.506,48.752,0.02675,0.13640,-0.00940
2.227,0.00611,0.00652,0.00604,-0.02005,0.00681,9.76579,40.067,40.981,41.506,48.421,-0.00176,0.02792,-0.00946
2.237,0.00602,0.00643,0.00599,-0.00217,-0.02007,9.81467,40.067,40.981,41.506,48.421,0.10466,-0.00842,-0.00954
2.247,0.00607,0.00643,0.00572,0.00903,-0.01005,9.78973,40.067,40.981,41.506,48.531,0.03712,0.08170,-0.00946
2.257,0.00616,0.00648,0.00554,0.00369,-0.02500,9.81472,40.067,40.981,41.506,48.421,0.13588,0.02702,-0.00958
2.267,0.00634,0.00652,0.00568,-0.01211,-0.01304,9.77197,40.067,40.981,41.506,48.421,0.07741,-0.06941,-0.00980
2.277,0.00634,0.00652,0.00590,-0.00149,-0.02105,9.74833,40.067,40.981,41.506,48.310,0.14548,0.01972,-0.00967
2.287,0.00638,0.00652,0.00599,-0.02468,-0.04108,9.80704,40.067,40.981,41.506,48.531,0.20174,-0.07792,-0.01000
2.297,0.00647,0.00657,0.00595,0.00208,0.01641,9.80564,40.067,40.981,41.509,48.421,0.09350,-0.04522,-0.00995
2.307,0.00669,0.00657,0.00595,0.01323,0.03559,9.76499,40.067,40.981,41.509,48.421,-0.01098,-0.00283,-0.00996
2.317,0.00678,0.00657,0.00599,-0.03527,-0.02016,9.78718,40.067,40.981,41.509,48.531,0.04934,-0.09816,-0.01004
2.327,0.00674,0.00666,0.00603,0.01809,-0.03860,9.82812,40.067,40.981,41.509,48.310,0.12300,-0.01279,-0.00995
2.337,0.00669,0.00670,0.00608,-0.03494,-0.00491,9.75654,40.067,40.981,41.509,48.421,0.07354,-0.11380,-0.01017
2.347,0.00678,0.00666,0.00603,0.01654,-0.00447,9.82592,40.026,40.981,41.509,48.421,0.04870,-0.00406,-0.01008
2.357,0.00696,0.00666,0.00590,-0.01477,0.00583,9.80000,40.026,40.981,41.509,48.642,-0.03138,-0.08367,-0.01013
2.367,0.00696,0.00661,0.00581,0.01991,-0.00845,9.77007,40.026,40.981,41.509,48.642,0.01076,0.02073,-0.01019
2.377,0.00678,0.00652,0.00586,-0.05529,0.03833,9.78960,40.026,40.981,41.509,48.531,-0.05288,-0.07244,-0.01019
2.387,0.00678,0.00639,0.00590,-0.01485,-0.00849,9.76550,40.026,40.981,41.509,48.531,0.05846,-0.08839,-0.01023
2.397,0.00669,0.00630,0.00586,-0.00134,-0.01630,9.79213,40.026,40.986,41.509,48.531,0.10539,0.01403,-0.01013
2.407,0.00674,0.00630,0.00581,0.00950,-0.03323,9.74040,40.026,40.986,41.509,48.752,0.20699,0.06124,-0.01004
2.417,0.00683,0.00625,0.00572,-0.02916,-0.02080,9.80450,40.026,40.986,41.509,48.531,0.16800,-0.04441,-0.01041
2.427,0.00705,0.00625,0.00572,0.00153,0.01432,9.75821,40.026,40.986,41.509,48.531,0.05816,-0.02119,-0.01040
2.437,0.00718,0.00639,0.00577,0.00587,0.00099,9.77398,40.026,40.986,41.509,48.421,-0.02658,0.05237,-0.01042
2.447,0.00727,0.00648,0.00577,-0.02896,-0.01107,9.73007,40.026,40.986,41.509,48.531,0.01583,-0.05082,-0.01045
2.457,0.00736,0.00652,0.00554,-0.00190,-0.00971,9.81381,40.026,40.986,41.509,48.421,0.09610,0.02726,-0.01040
2.467,0.00727,0.00661,0.00536,0.02261,-0.01793,9.79707,40.026,40.986,41.509,48.752,0.10538,0.13923,-0.01024
2.477,0.00732,0.00666,0.00541,0.01826,0.03982,9.75011,40.026,40.986,41.509,48.531,-0.00617,0.12871,-0.01028
2.487,0.00723,0.00670,0.00563,-0.01194,0.02888,9.79748,40.026,40.986,41.509,48.531,-0.07745,0.04175,-0.01025
2.497,0.00705,0.00679,0.00590,0.00059,-0.01780,9.79657,40.026,40.986,41.507,48.421,0.03273,0.01845,-0.01029
2.507,0.00691,0.00683,0.00617,0.04764,0.00790,9.74357,40.026,40.986,41.507,48.531,0.00022,0.12570,-0.01029
2.517,0.00687,0.00688,0.00630,-0.01474,-0.04537,9.75242,40.026,40.986,41.507,48.752,0.08759,0.05598,-0.01038
2.527,0.00674,0.00692,0.00617,0.00052,-0.03782,9.77698,40.026,40.986,41.507,48.421,0.19162,0.01484,-0.01053
2.537,0.00665,0.00683,0.00599,0.01578,0.00311,9.79974,40.026,40.986,41.507,48.421,0.08620,0.05369,-0.01048
2.547,0.00651,0.00683,0.00595,0.02047,-0.02455,9.77378,40.011,40.986,41.507,48.531,0.15990,0.13831,-0.01032
2.557,0.00620,0.00679,0.00590,-0.02160,-0.00994,9.81372,40.011,40.986,41.507,48.531,0.11937,0.03317,-0.01062
2.567,0.00598,0.00665,0.00590,0.00047,0.02024,9.81125,40.011,40.986,41.507,48.421,0.00730,0.01877,-0.01067
2.577,0.00598,0.00656,0.00590,0.01256,0.02827,9.75939,40.011,40.986,41.507,48.310,-0.10002,0.05278,-0.01073
2.587,0.00589,0.00634,0.00599,0.00269,-0.00240,9.80494,40.011,40.986,41.507,48.752,0.00736,0.01783,-0.01074
2.597,0.00607,0.00617,0.00608,0.01173,-0.00660,9.77927,40.011,40.967,41.507,48.421,0.06642,0.11393,-0.01072
2.607,0.00589,0.00617,0.00595,0.04237,0.00955,9.79741,40.011,40.967,41.507,48.421,-0.00986,0.19737,-0.01071
2.617,0.00576,0.00621,0.00568,-0.01585,0.00766,9.77667,40.011,40.967,41.507,48.421,-0.02342,0.08524,-0.01072
2.627,0.00598,0.00617,0.00545,0.00352,-0.00775,9.80618,40.011,40.967,41.507,48.421,0.05901,0.00761,-0.01078
2.637,0.00629,0.00613,0.00523,-0.01403,-0.04570,9.76811,40.011,40.967,41.507,48.421,0.16270,-0.03705,-0.01089
2.647,0.00625,0.00608,0.00519,-0.03702,0.03351,9.77563,40.011,40.967,41.507,48.421,0.06183,-0.08760,-0.01102
2.657,0.00629,0.00604,0.00528,0.03720,-0.01198,9.80193,40.011,40.967,41.507,48.421,0.06484,0.02539,-0.01093
2.667,0.00647,0.00613,0.00532,0.06167,0.00637,9.81279,40.011,40.967,41.507,48.531,0.03176,0.13371,-0.01086
2.677,0.00665,0.00617,0.00523,0.03240,0.00330,9.79821,40.011,40.967,41.507,48.421,-0.04487,0.21731,-0.01091
2.687,0.00652,0.00613,0.00523,0.00996,-0.03184,9.81277,40.011,40.967,41.507,48.531,0.04856,0.15280,-0.01093
2.697,0.00647,0.00608,0.00532,0.03276,-0.00991,9.74923,40.011,40.967,41.509,48.531,0.07521,0.26247,-0.01084
2.707,0.00643,0.00595,0.00545,0.01649,-0.04801,9.77388,40.011,40.967,41.509,48.310,0.16303,0.19180,-0.01103
2.717,0.00647,0.00595,0.00563,0.00271,-0.03960,9.81197,40.011,40.967,41.509,48.531,0.20384,0.08639,-0.01139
2.727,0.00629,0.00590,0.00590,-0.00298,-0.00788,9.79007,40.011,40.967,41.509,48.531,0.10935,0.02418,-0.01160
2.737,0.00643,0.00590,0.00617,0.00640,-0.02269,9.80587,40.011,40.967,41.509,48.531,0.20782,0.08026,-0.01149
2.747,0.00660,0.00590,0.00648,0.02900,-0.03057,9.78189,40.035,40.967,41.509,48.531,0.17317,0.18804,-0.01117
2.757,0.00647,0.00594,0.00671,0.00081,0.01009,9.75823,40.035,40.967,41.509,48.531,0.08458,0.11817,-0.01138
2.767,0.00620,0.00608,0.00675,0.00121,0.00324,9.77274,40.035,40.967,41.509,48.531,0.00774,0.03577,-0.01147
2.777,0.00611,0.00621,0.00671,0.01287,0.00446,9.75309,40.035,40.967,41.509,48.421,-0.06506,0.12116,-0.01157
2.787,0.00607,0.00630,0.00671,-0.01718,-0.03314,9.74592,40.035,40.967,41.509,48.310,0.01987,0.04849,-0.01158
2.797,0.00607,0.00636,0.00671,-0.01561,0.02222,9.76855,40.035,40.923,41.509,48.531,-0.06190,-0.02775,-0.01160
2.807,0.00598,0.00632,0.00684,0.04861,-0.01202,9.75212,40.035,40.923,41.509,48.531,-0.01851,0.07492,-0.01171
2.817,0.00616,0.00632,0.00684,-0.00805,-0.00220,9.78640,40.035,40.923,41.509,48.421,0.00929,-0.03341,-0.01176
2.827,0.00625,0.00632,0.00675,-0.00453,0.00009,9.76791,40.035,40.923,41.509,48.421,-0.08224,0.03076,-0.01183
2.837,0.00625,0.00636,0.00662,-0.01758,-0.01344,9.78561,40.035,40.923,41.509,48.531,0.00389,-0.04085,-0.01183
2.847,0.00616,0.00645,0.00644,-0.01994,0.00596,9.74208,40.035,40.923,41.509,48.310,-0.04681,-0.14028,-0.01183
2.857,0.00625,0.00650,0.00621,0.02260,-0.02058,9.80754,40.035,40.923,41.509,48.752,0.01180,-0.04472,-0.01190
2.867,0.00620,0.00650,0.00595,0.02749,-0.00369,9.79018,40.035,40.923,41.509,48.531,0.01712,0.06751,-0.01191
2.877,0.00585,0.00645,0.00572,0.01533,0.03236,9.82653,40.035,40.923,41.509,48.421,-0.09480,0.07935,-0.01194
2.887,0.00585,0.00632,0.00541,-0.02871,0.01748,9.77455,40.035,40.923,41.509,48.531,-0.09832,-0.03307,-0.01179
2.897,0.00612,0.00619,0.00532,-0.03094,0.03975,9.78407,40.035,40.923,41.508,48.531,-0.17398,-0.11644,-0.01161
2.907,0.00629,0.00601,0.00532,0.03281,-0.03352,9.80403,40.035,40.923,41.508,48.421,-0.08727,-0.04420,-0.01181
2.917,0.00647,0.00583,0.00532,0.03187,-0.00831,9.77213,40.035,40.923,41.508,48.421,-0.03014,0.05291,-0.01194
2.927,0.00616,0.00570,0.00532,-0.03914,-0.03123,9.81979,40.035,40.923,41.508,48.421,0.03783,-0.03721,-0.01197
2.937,0.00612,0.00561,0.00528,-0.00574,-0.02833,9.76845,40.035,40.923,41.508,48.421,0.15040,-0.03412,-0.01200
2.947,0.00603,0.00556,0.00528,-0.03162,-0.00665,9.79838,40.069,40.923,41.508,48.531,0.08323,-0.12492,-0.01221
2.957,0.00598,0.00556,0.00532,-0.00036,0.02750,9.80357,40.069,40.923,41.508,48.531,-0.01791,-0.07405,-0.01221
2.967,0.00585,0.00547,0.00532,0.02251,-0.00454,9.78212,40.069,40.923,41.508,48.310,0.00596,0.03647,-0.01225
2.977,0.00594,0.00543,0.00532,0.02808,0.00558,9.80823,40.069,40.923,41.508,48.752,-0.02689,0.14496,-0.01230
2.987,0.00576,0.00556,0.00532,0.01404,-0.03690,9.77502,40.069,40.923,41.508,48.421,0.08263,0.11670,-0.01234
2.997,0.00572,0.00560,0.00537,0.05526,-0.03140,9.78764,40.069,40.948,41.508,48.642,0.13232,0.21830,-0.01217
3.007,0.00598,0.00569,0.00532,0.00107,-0.02091,9.78252,40.069,40.948,41.508,48.642,0.12704,0.10534,-0.01246
3.017,0.00603,0.00586,0.00537,-0.02716,-0.01931,9.78440,40.069,40.948,41.508,48.531,0.12105,-0.00756,-0.01273
3.027,0.00598,0.00591,0.00537,0.06859,0.00990,9.81079,40.069,40.948,41.508,48.531,0.07555,0.09615,-0.01259
3.037,0.00607,0.00604,0.00528,-0.03756,-0.02060,9.78034,40.069,40.948,41.508,48.421,0.09150,-0.01587,-0.01278
3.047,0.00607,0.00613,0.00519,-0.02818,-0.03274,9.78848,40.069,40.948,41.508,48.421,0.15457,-0.10982,-0.01300
3.057,0.00598,0.00627,0.00514,0.00347,-0.02855,9.78538,40.069,40.948,41.508,48.642,0.16543,0.00273,-0.01271
3.067,0.00594,0.00631,0.00510,-0.00398,-0.01410,9.77000,40.069,40.948,41.508,48.531,0.05777,-0.03122,-0.01281
3.077,0.00621,0.00636,0.00496,-0.01055,-0.01455,9.77198,40.069,40.948,41.508,48.421,0.13309,-0.11502,-0.01297
3.087,0.00652,0.00640,0.00469,0.02366,0.02430,9.79605,40.069,40.948,41.508,48.531,0.05001,-0.03859,-0.01287
3.097,0.00679,0.00645,0.00460,-0.00695,0.04683,9.75398,40.069,40.948,41.508,48.421,-0.06246,-0.03939,-0.01289
3.107,0.00661,0.00640,0.00456,0.03888,-0.04736,9.77639,40.069,40.948,41.508,48.642,0.02587,0.03004,-0.01293
3.117,0.00661,0.00631,0.00451,0.01268,-0.01928,9.77211,40.069,40.948,41.508,48.531,0.12594,0.08093,-0.01288
3.127,0.00683,0.00627,0.00456,-0.00299,0.01867,9.81084,40.069,40.948,41.508,48.310,0.02194,0.03736,-0.01296
3.137,0.00688,0.00614,0.00469,0.04262,0.00024,9.76450,40.069,40.948,41.508,48.752,0.00965,0.14910,-0.01294
3.147,0.00696,0.00605,0.00492,-0.01917,-0.00620,9.77592,40.073,40.948,41.508,48.531,0.02102,0.03725,-0.01300
3.157,0.00683,0.00600,0.00514,-0.00082,-0.02705,9.79058,40.073,40.948,41.508,48.642,0.12863,0.00423,-0.01307
3.167,0.00687,0.00587,0.00532,-0.00170,0.00146,9.82702,40.073,40.948,41.508,48.421,0.01651,-0.00734,-0.01311
3.177,0.00652,0.00582,0.00536,-0.04210,-0.03175,9.78962,40.073,40.948,41.508,48.752,0.08166,-0.09943,-0.01322
3.187,0.00656,0.00569,0.00523,0.01640,0.04841,9.80192,40.073,40.948,41.508,48.421,-0.01807,-0.04607,-0.01322
3.197,0.00661,0.00573,0.00510,-0.04676,-0.02950,9.78919,40.073,40.964,41.508,48.310,0.05455,-0.13280,-0.01327
3.207,0.00652,0.00577,0.00523,-0.02039,-0.03878,9.79136,40.073,40.964,41.508,48.531,0.16735,-0.12401,-0.01327
3.217,0.00625,0.00573,0.00550,0.00983,-0.01349,9.79056,40.073,40.964,41.508,48.531,0.11776,-0.02225,-0.01306
3.227,0.00616,0.00581,0.00563,0.01408,-0.03617,9.76416,40.073,40.964,41.508,48.421,0.19327,0.06154,-0.01286
3.237,0.00616,0.00599,0.00559,-0.02283,-0.02237,9.77317,40.073,40.964,41.508,48.642,0.15909,-0.04587,-0.01322
3.247,0.00620,0.00622,0.00559,-0.00487,0.01708,9.80199,40.073,40.964,41.508,48.421,0.04632,-0.03832,-0.01324
3.257,0.00598,0.00630,0.00559,0.03055,-0.03892,9.80445,40.073,40.964,41.508,48.421,0.11890,0.04859,-0.01314
3.267,0.00589,0.00639,0.00563,0.05497,-0.00645,9.78790,40.073,40.964,41.508,48.531,0.08663,0.15713,-0.01298
3.277,0.00580,0.00644,0.00577,-0.02596,-0.02427,9.78885,40.073,40.964,41.508,48.642,0.10660,0.04562,-0.01319
3.287,0.00611,0.00639,0.00568,0.03938,0.02571,9.82064,40.073,40.964,41.508,48.310,0.01452,0.11164,-0.01315
3.297,0.00603,0.00648,0.00550,-0.01620,-0.02310,9.76074,40.073,40.964,41.510,48.531,0.07153,0.01422,-0.01325
3.307,0.00616,0.00657,0.00545,0.01147,-0.02077,9.78859,40.073,40.964,41.510,48.531,0.14907,0.09625,-0.01313
3.317,0.00652,0.00671,0.00550,0.04537,0.03171,9.75710,40.073,40.964,41.510,48.531,0.04871,0.14714,-0.01306
3.327,0.00660,0.00680,0.00559,-0.02924,-0.01047,9.79520,40.073,40.964,41.510,48.310,0.05312,0.03444,-0.01320
3.337,0.00660,0.00684,0.00559,-0.02039,-0.03802,9.78975,40.073,40.964,41.510,48.531,0.13664,-0.04146,-0.01335
3.347,0.00656,0.00693,0.00563,-0.04551,0.00078,9.77376,40.074,40.964,41.510,48.531,0.07675,-0.13700,-0.01356
3.357,0.00647,0.00684,0.00554,-0.01521,-0.02752,9.81344,40.074,40.964,41.510,48.531,0.17468,-0.08077,-0.01346
3.367,0.00665,0.00662,0.00568,-0.06182,-0.02245,9.76737,40.074,40.964,41.510,48.421,0.15767,-0.19222,-0.01381
3.377,0.00661,0.00639,0.00572,0.01589,-0.02085,9.74881,40.074,40.964,41.510,48.421,0.14393,-0.08088,-0.01355
3.387,0.00656,0.00635,0.00572,-0.02182,0.01039,9.81040,40.074,40.964,41.510,48.531,0.03408,-0.10591,-0.01362
3.397,0.00652,0.00626,0.00550,-0.02515,-0.00878,9.82737,40.074,40.967,41.510,48.531,0.07778,-0.20981,-0.01375
3.407,0.00656,0.00622,0.00523,-0.00470,-0.02099,9.77767,40.074,40.967,41.510,48.531,0.10488,-0.10052,-0.01360
3.417,0.00638,0.00631,0.00519,-0.00147,0.00433,9.76388,40.074,40.967,41.510,48.421,0.01302,-0.03577,-0.01355
3.427,0.00621,0.00626,0.00523,-0.01905,0.00771,9.80198,40.074,40.967,41.510,48.531,-0.05569,-0.12522,-0.01354
3.437,0.00638,0.00626,0.00528,0.00354,0.00364,9.76953,40.074,40.967,41.510,48.531,-0.02994,-0.01569,-0.01365
3.447,0.00612,0.00635,0.00541,-0.01197,-0.03102,9.78694,40.074,40.967,41.510,48.642,0.07914,-0.04376,-0.01369
3.457,0.00580,0.00653,0.00550,0.01269,-0.01623,9.76324,40.074,40.967,41.510,48.421,0.09431,0.06756,-0.01355
3.467,0.00576,0.00657,0.00550,-0.00171,-0.01594,9.78730,40.074,40.967,41.510,48.310,0.09282,-0.04499,-0.01377
3.477,0.00589,0.00657,0.00541,0.03656,0.04365,9.79962,40.074,40.967,41.510,48.531,0.00224,0.02229,-0.01373
3.487,0.00589,0.00662,0.00532,0.02297,0.01244,9.80897,40.074,40.967,41.510,48.531,-0.06071,0.11630,-0.01380
3.497,0.00563,0.00670,0.00510,0.01794,-0.02708,9.83007,40.074,40.967,41.516,48.421,0.05217,0.11021,-0.01382
3.507,0.00580,0.00675,0.00487,0.01615,-0.02151,9.78138,40.074,40.967,41.516,48.531,0.16269,0.08679,-0.01389
3.517,0.00585,0.00671,0.00474,0.01414,0.00545,9.81581,40.074,40.967,41.516,48.642,0.04952,0.08429,-0.01392
3.527,0.00580,0.00671,0.00483,0.03534,0.01942,9.78808,40.074,40.967,41.516,48.421,-0.04098,0.15223,-0.01393
3.537,0.00594,0.00671,0.00492,0.02066,0.00746,9.82146,40.074,40.967,41.516,48.421,-0.05009,0.03933,-0.01387
3.547,0.00598,0.00662,0.00501,-0.01745,0.00578,9.79355,40.074,40.967,41.516,48.531,-0.03715,-0.07325,-0.01381
3.557,0.00612,0.00653,0.00519,-0.01525,0.02035,9.78102,40.074,40.967,41.516,48.531,-0.14823,-0.09505,-0.01379
3.567,0.00616,0.00644,0.00528,-0.06298,-0.01069,9.73273,40.074,40.967,41.516,48.421,-0.07995,-0.18428,-0.01364
3.577,0.00643,0.00630,0.00536,-0.03799,-0.00535,9.74889,40.074,40.967,41.516,48.531,0.02567,-0.22131,-0.01365
3.587,0.00661,0.00604,0.00536,0.02902,-0.00100,9.78696,40.074,40.967,41.516,48.531,0.01996,-0.10932,-0.01362
3.597,0.00656,0.00590,0.00527,0.02555,-0.00066,9.78453,40.074,40.968,41.516,48.421,0.01297,0.00275,-0.01361
3.607,0.00634,0.00573,0.00514,0.01089,0.00600,9.76111,40.074,40.968,41.516,48.531,-0.05642,0.09077,-0.01368
3.617,0.00630,0.00559,0.00527,-0.00218,-0.02721,9.74635,40.074,40.968,41.516,48.531,0.04428,0.04252,-0.01370
3.627,0.00639,0.00541,0.00545,-0.03192,-0.01395,9.79882,40.074,40.968,41.516,48.752,0.06225,-0.06819,-0.01383
3.637,0.00638,0.00537,0.00568,-0.00342,-0.03819,9.79586,40.074,40.968,41.516,48.531,0.16996,-0.03598,-0.01379
3.647,0.00634,0.00546,0.00581,0.00738,0.00598,9.76873,40.074,40.968,41.516,48.642,0.06517,0.00449,-0.01374
3.657,0.00621,0.00554,0.00581,0.00645,0.00686,9.80411,40.074,40.968,41.516,48.421,-0.04236,0.03837,-0.01375
3.667,0.00603,0.00545,0.00581,-0.01263,-0.00571,9.78318,40.074,40.968,41.516,48.531,0.02068,-0.05510,-0.01377
3.677,0.00603,0.00537,0.00577,-0.00873,-0.01559,9.80014,40.074,40.968,41.516,48.863,0.13347,-0.04858,-0.01379
3.687,0.00612,0.00546,0.00559,-0.01635,0.00812,9.80078,40.074,40.968,41.516,48.531,0.02384,-0.07706,-0.01385
3.697,0.00603,0.00554,0.00550,-0.00571,-0.01207,9.80898,40.074,40.968,41.515,48.421,0.10666,0.00045,-0.01379
3.707,0.00589,0.00568,0.00532,-0.01545,-0.03410,9.79659,40.074,40.968,41.515,48.531,0.18779,-0.07897,-0.01402
3.717,0.00576,0.00572,0.00528,0.00552,-0.01006,9.79736,40.074,40.968,41.515,48.531,0.10174,-0.00479,-0.01386
3.727,0.00589,0.00572,0.00545,0.00464,-0.03539,9.80110,40.074,40.968,41.515,48.531,0.21053,0.02821,-0.01379
3.737,0.00594,0.00572,0.00559,-0.04064,-0.02976,9.80490,40.074,40.968,41.515,48.531,0.19496,-0.08461,-0.01422
3.747,0.00607,0.00572,0.00568,0.00731,0.01934,9.74735,40.074,40.968,41.515,48.531,0.09039,-0.04142,-0.01414
3.757,0.00625,0.00595,0.00581,-0.00113,0.03966,9.76892,40.074,40.968,41.515,48.421,-0.02183,-0.02937,-0.01416
3.767,0.00607,0.00612,0.00590,0.00359,0.00512,9.75304,40.074,40.968,41.515,48.421,-0.03998,0.08152,-0.01425
3.777,0.00616,0.00617,0.00586,-0.02113,-0.04338,9.79581,40.074,40.968,41.515,48.421,0.05236,0.01699,-0.01428
3.787,0.00638,0.00617,0.00577,0.01520,0.00752,9.74182,40.074,40.968,41.515,48.531,-0.03735,0.08419,-0.01431
3.797,0.00643,0.00612,0.00554,0.04057,0.02684,9.81018,40.074,40.978,41.515,48.642,-0.10668,0.17281,-0.01444
3.807,0.00643,0.00612,0.00541,-0.00583,-0.00171,9.80892,40.074,40.978,41.515,48.531,-0.05125,0.07445,-0.01433
3.817,0.00634,0.00603,0.00532,-0.00451,-0.00677,9.78443,40.074,40.978,41.515,48.531,0.02429,-0.00946,-0.01434
3.827,0.00616,0.00603,0.00536,0.03032,-0.01060,9.78058,40.074,40.978,41.515,48.421,0.04661,0.10112,-0.01430
3.837,0.00621,0.00594,0.00541,0.05268,-0.02475,9.83262,40.074,40.978,41.515,48.310,0.09492,0.20299,-0.01419
3.847,0.00625,0.00590,0.00550,-0.01933,-0.01778,9.75507,40.074,40.978,41.515,48.531,0.09827,0.09065,-0.01440
3.857,0.00607,0.00590,0.00536,0.03035,0.01744,9.78646,40.074,40.978,41.515,48.531,-0.00494,0.13545,-0.01439
3.867,0.00607,0.00594,0.00523,-0.03460,0.03004,9.76199,40.074,40.978,41.515,48.642,-0.05566,0.03528,-0.01436
3.877,0.00598,0.00599,0.00519,0.02358,0.00733,9.77001,40.074,40.978,41.515,48.531,-0.04197,0.14657,-0.01448
3.887,0.00589,0.00608,0.00505,0.03412,-0.00557,9.78097,40.074,40.978,41.515,48.642,0.04932,0.21183,-0.01450
3.897,0.00589,0.00612,0.00487,-0.02391,-0.03081,9.77884,40.074,40.978,41.513,48.642,0.08852,0.10658,-0.01464
3.907,0.00585,0.00608,0.00478,-0.02140,0.02254,9.76852,40.074,40.978,41.513,48.421,0.01120,0.02526,-0.01473
3.917,0.00572,0.00603,0.00483,0.03223,0.01446,9.80780,40.074,40.978,41.513,48.310,-0.04583,0.12238,-0.01479
3.927,0.00572,0.00608,0.00505,-0.01733,0.00987,9.75373,40.074,40.978,41.513,48.642,-0.05193,0.01028,-0.01472
3.937,0.00567,0.00608,0.00514,0.02296,0.00940,9.82025,40.074,40.978,41.513,48.531,-0.05462,0.12272,-0.01484
3.947,0.00572,0.00603,0.00528,0.01959,-0.00136,9.82552,40.074,40.978,41.513,48.421,0.05696,0.10758,-0.01485
3.957,0.00585,0.00608,0.00523,0.03405,0.00095,9.77893,40.074,40.978,41.513,48.752,-0.00638,0.20065,-0.01483
3.967,0.00576,0.00616,0.00541,0.01026,-0.01580,9.78776,40.074,40.978,41.513,48.642,0.05842,0.10843,-0.01490
3.977,0.00598,0.00625,0.00554,0.03247,-0.03128,9.78713,40.074,40.978,41.513,48.421,0.15275,0.17018,-0.01482
3.987,0.00607,0.00630,0.00568,0.02039,-0.01005,9.75078,40.074,40.978,41.513,48.310,0.05379,0.11700,-0.01495
3.997,0.00620,0.00625,0.00577,0.00543,-0.01228,9.82511,40.074,40.978,41.513,48.421,0.07672,0.00686,-0.01509
4.007,0.00616,0.00630,0.00568,0.02344,0.01010,9.79773,40.074,40.978,41.513,48.421,-0.00470,0.08487,-0.01507
4.017,0.00625,0.00625,0.00563,-0.00585,0.01427,9.76863,40.074,40.978,41.513,48.421,-0.06691,-0.00897,-0.01504
4.027,0.00616,0.00621,0.00559,0.02878,-0.01823,9.79951,40.074,40.978,41.513,48.752,0.01200,0.07165,-0.01510
4.037,0.00620,0.00621,0.00572,0.00049,-0.00974,9.79733,40.074,40.978,41.513,48.531,0.07382,-0.02301,-0.01520
4.047,0.00634,0.00621,0.00581,0.05433,-0.00581,9.75332,40.074,40.978,41.513,48.531,0.06081,0.08877,-0.01510
4.057,0.00643,0.00621,0.00581,0.01487,-0.03162,9.74645,40.074,40.978,41.513,48.531,0.17284,0.08752,-0.01513
4.067,0.00647,0.00630,0.00590,0.00854,-0.00724,9.71332,40.074,40.978,41.513,48.421,0.06588,0.05697,-0.01522
4.077,0.00634,0.00643,0.00604,0.01051,-0.02398,9.75001,40.074,40.978,41.513,48.531,0.17665,0.06405,-0.01523
4.087,0.00625,0.00657,0.00621,-0.00956,0.00460,9.75902,40.074,40.978,41.513,48.531,0.08101,0.00760,-0.01538
4.097,0.00616,0.00657,0.00604,0.00989,0.04829,9.78822,40.074,40.978,41.510,48.421,-0.02942,0.02283,-0.01541
4.107,0.00598,0.00648,0.00568,-0.06125,-0.04655,9.79042,40.074,40.978,41.510,48.421,0.03998,-0.06488,-0.01544
4.117,0.00576,0.00643,0.00546,0.00359,-0.03321,9.76933,40.074,40.978,41.510,48.531,0.13772,-0.01064,-0.01539
4.127,0.00580,0.00634,0.00537,0.01457,-0.01275,9.76444,40.074,40.978,41.510,48.531,0.07654,0.08285,-0.01523
4.137,0.00607,0.00621,0.00537,-0.00331,0.02888,9.76655,40.074,40.978,41.510,48.421,-0.02662,0.03993,-0.01527
4.147,0.00594,0.00617,0.00532,-0.01542,0.00344,9.77629,40.064,40.978,41.510,48.531,-0.02112,-0.07177,-0.01525
4.157,0.00620,0.00608,0.00554,0.00691,-0.01707,9.76162,40.064,40.978,41.510,48.531,0.06082,0.00407,-0.01524
4.167,0.00616,0.00603,0.00559,-0.00267,-0.01771,9.83596,40.064,40.978,41.510,48.531,0.16224,-0.04297,-0.01537
4.177,0.00620,0.00608,0.00563,-0.03215,-0.02509,9.79406,40.064,40.978,41.510,48.531,0.15035,-0.15455,-0.01569
4.187,0.00612,0.00608,0.00572,-0.04342,-0.01681,9.78431,40.064,40.978,41.510,48.421,0.09846,-0.25420,-0.01594
4.197,0.00585,0.00603,0.00563,-0.02029,-0.04685,9.78980,40.064,40.980,41.510,48.531,0.18755,-0.18553,-0.01580
4.207,0.00612,0.00599,0.00541,0.00012,0.01375,9.82053,40.064,40.980,41.510,48.531,0.09499,-0.12120,-0.01566
4.217,0.00607,0.00585,0.00519,0.01379,0.00998,9.79407,40.064,40.980,41.510,48.531,0.02667,-0.03132,-0.01558
4.227,0.00630,0.00581,0.00510,0.01382,-0.01468,9.76485,40.064,40.980,41.510,48.421,0.07930,0.06819,-0.01551
4.237,0.00643,0.00585,0.00519,0.05707,0.02074,9.76365,40.064,40.980,41.510,48.421,0.01165,0.15788,-0.01546
4.247,0.00683,0.00586,0.00527,-0.01121,-0.03595,9.80466,40.064,40.980,41.510,48.531,0.08650,0.07355,-0.01555
4.257,0.00674,0.00594,0.00545,-0.01143,-0.00536,9.77152,40.064,40.980,41.510,48.531,0.04538,-0.03131,-0.01570
4.267,0.00656,0.00603,0.00559,-0.01691,0.01433,9.82487,40.064,40.980,41.510,48.310,-0.05458,-0.08348,-0.01571
4.277,0.00665,0.00612,0.00586,0.02686,0.02197,9.77597,40.064,40.980,41.510,48.642,-0.08774,0.02413,-0.01587
4.287,0.00665,0.00617,0.00586,-0.02603,-0.04163,9.76120,40.064,40.980,41.510,48.421,0.01137,-0.02870,-0.01587
4.297,0.00665,0.00617,0.00577,-0.02839,-0.04391,9.77849,40.064,40.980,41.507,48.421,0.10937,-0.08360,-0.01595
4.307,0.00634,0.00608,0.00550,-0.02744,0.01247,9.76292,40.064,40.980,41.507,48.421,0.00612,-0.12743,-0.01601
4.317,0.00625,0.00599,0.00519,0.01566,0.01386,9.79929,40.064,40.980,41.507,48.421,-0.03551,-0.02291,-0.01606
4.327,0.00638,0.00590,0.00501,0.01758,-0.01189,9.78174,40.064,40.980,41.507,48.531,0.03663,0.06344,-0.01608
4.337,0.00585,0.00603,0.00510,-0.01012,-0.01763,9.77039,40.064,40.980,41.507,48.531,0.09028,-0.03535,-0.01621
4.347,0.00598,0.00612,0.00523,0.00430,-0.00052,9.78484,40.014,40.980,41.507,48.531,-0.00218,0.02876,-0.01618
4.357,0.00580,0.00612,0.00546,0.00056,0.01447,9.80525,40.014,40.980,41.507,48.310,-0.11005,-0.00465,-0.01617
4.367,0.00576,0.00603,0.00559,-0.02355,-0.00196,9.79558,40.014,40.980,41.507,48.421,-0.03383,-0.08817,-0.01609
4.377,0.00562,0.00585,0.00572,0.00215,-0.01437,9.78410,40.014,40.980,41.507,48.531,0.05211,-0.01480,-0.01610
4.387,0.00567,0.00572,0.00568,0.02296,-0.00953,9.78135,40.014,40.980,41.507,48.421,0.05490,0.09810,-0.01602
4.397,0.00571,0.00568,0.00559,-0.03530,0.01058,9.79948,40.014,40.966,41.507,48.531,0.01436,-0.00759,-0.01611
4.407,0.00589,0.00559,0.00541,-0.02293,-0.05187,9.78780,40.014,40.966,41.507,48.531,0.11801,-0.05298,-0.01619
4.417,0.00585,0.00563,0.00528,0.02359,-0.00333,9.79780,40.014,40.966,41.507,48.531,0.06602,0.04769,-0.01605
4.427,0.00589,0.00577,0.00523,-0.04096,0.03353,9.79491,40.014,40.966,41.507,48.531,-0.01043,-0.03609,-0.01610
4.437,0.00620,0.00595,0.00545,-0.01777,0.00344,9.78472,40.014,40.966,41.507,48.421,-0.02650,-0.14826,-0.01609
4.447,0.00629,0.00599,0.00572,-0.01670,0.01113,9.78508,40.014,40.966,41.507,48.421,-0.09541,-0.05843,-0.01622
4.457,0.00629,0.00599,0.00586,0.00223,0.00488,9.80128,40.014,40.966,41.507,48.421,-0.01795,0.02436,-0.01631
4.467,0.00669,0.00586,0.00586,-0.00981,0.00974,9.80322,40.014,40.966,41.507,48.310,-0.06687,-0.07819,-0.01626
4.477,0.00656,0.00577,0.00577,-0.03141,-0.00796,9.75135,40.014,40.966,41.507,48.421,0.01558,-0.15540,-0.01626
4.487,0.00678,0.00577,0.00563,0.03055,0.00397,9.77608,40.014,40.966,41.507,48.421,0.00253,-0.04336,-0.01626
4.497,0.00665,0.00590,0.00554,0.03742,0.01705,9.76036,40.014,40.966,41.502,48.752,-0.03838,0.06141,-0.01632
4.507,0.00647,0.00599,0.00532,-0.04317,-0.00530,9.78465,40.014,40.966,41.502,48.531,-0.01413,-0.04853,-0.01629
4.517,0.00643,0.00617,0.00519,-0.02488,-0.02420,9.80655,40.014,40.966,41.502,48.421,0.08174,-0.10825,-0.01634
4.527,0.00647,0.00626,0.00501,0.00985,0.01760,9.79160,40.014,40.966,41.502,48.310,-0.00240,-0.03274,-0.01631
4.537,0.00616,0.00626,0.00483,-0.04354,0.01857,9.80664,40.014,40.966,41.502,48.531,-0.05137,-0.13502,-0.01628
4.547,0.00603,0.00622,0.00474,-0.00275,0.00555,9.79040,40.032,40.966,41.502,48.421,-0.03363,-0.02309,-0.01637
4.557,0.00589,0.00617,0.00478,0.00150,-0.02627,9.78617,40.032,40.966,41.502,48.531,0.07804,-0.00410,-0.01638
4.567,0.00558,0.00604,0.00474,0.04820,-0.04767,9.76558,40.032,40.966,41.502,48.421,0.14295,0.08827,-0.01622
4.577,0.00554,0.00590,0.00470,-0.03630,-0.04043,9.81261,40.032,40.966,41.502,48.421,0.17646,-0.01984,-0.01653
4.587,0.00558,0.00590,0.00483,-0.01287,-0.01990,9.78728,40.032,40.966,41.502,48.421,0.09342,-0.09674,-0.01673
4.597,0.00563,0.00597,0.00505,0.00138,0.01977,9.77949,40.032,40.894,41.502,48.531,-0.00766,-0.04614,-0.01672
4.607,0.00571,0.00593,0.00523,0.04871,0.00114,9.78462,40.032,40.894,41.502,48.421,-0.00734,0.06684,-0.01675
4.617,0.00563,0.00597,0.00532,0.01231,0.03645,9.79754,40.032,40.894,41.502,48.421,-0.12050,0.06964,-0.01677
4.627,0.00571,0.00593,0.00519,0.02061,-0.00649,9.78212,40.032,40.894,41.502,48.421,-0.01288,0.10429,-0.01683
4.637,0.00585,0.00588,0.00514,0.01395,-0.01068,9.81428,40.032,40.894,41.502,48.421,0.09548,0.07137,-0.01687
4.647,0.00594,0.00580,0.00514,0.00381,-0.03612,9.81638,40.032,40.894,41.502,48.421,0.19977,0.02692,-0.01700
4.657,0.00585,0.00588,0.00514,-0.03192,-0.00102,9.76176,40.032,40.894,41.502,48.531,0.12399,-0.05686,-0.01726
4.667,0.00594,0.00606,0.00519,-0.01371,0.01998,9.78224,40.032,40.894,41.502,48.531,0.01160,-0.06780,-0.01730
4.677,0.00603,0.00620,0.00528,0.00823,-0.03620,9.77740,40.032,40.894,41.502,48.421,0.10920,-0.01134,-0.01724
4.687,0.00625,0.00624,0.00537,-0.01847,-0.00461,9.78958,40.032,40.894,41.502,48.421,0.03607,-0.09739,-0.01737
4.697,0.00652,0.00620,0.00536,0.00966,-0.03495,9.80032,40.032,40.894,41.503,48.421,0.11954,-0.02107,-0.01730
4.707,0.00656,0.00629,0.00536,-0.02767,-0.03625,9.77001,40.032,40.894,41.503,48.752,0.18161,-0.11534,-0.01756
4.717,0.00656,0.00629,0.00523,0.06205,-0.01750,9.78679,40.032,40.894,41.503,48.531,0.16317,-0.00397,-0.01724
4.727,0.00634,0.00629,0.00487,0.03483,0.03891,9.76466,40.032,40.894,41.503,48.642,0.06373,0.04891,-0.01717
4.737,0.00629,0.00629,0.00456,0.05680,-0.02529,9.77072,40.032,40.894,41.503,48.310,0.09579,0.15667,-0.01702
4.747,0.00634,0.00625,0.00443,0.01848,0.04034,9.78911,40.065,40.894,41.503,48.421,-0.01567,0.14036,-0.01704
4.757,0.00652,0.00625,0.00456,0.05106,-0.02198,9.74816,40.065,40.894,41.503,48.421,0.05962,0.22341,-0.01703
4.767,0.00652,0.00638,0.00465,-0.01516,0.01495,9.77381,40.065,40.894,41.503,48.531,0.01177,0.12197,-0.01710
4.777,0.00643,0.00647,0.00478,0.00208,-0.02907,9.74758,40.065,40.894,41.503,48.531,0.10373,0.05852,-0.01718
4.787,0.00643,0.00651,0.00492,-0.01143,-0.00535,9.77193,40.065,40.894,41.503,48.421,0.04790,-0.03836,-0.01732
4.797,0.00656,0.00645,0.00514,-0.01557,-0.01195,9.76471,40.065,40.933,41.503,48.421,0.09105,-0.14141,-0.01747
4.807,0.00647,0.00641,0.00505,0.01613,0.00619,9.80053,40.065,40.933,41.503,48.531,0.03773,-0.04271,-0.01736
4.817,0.00629,0.00632,0.00483,-0.02791,0.00112,9.81404,40.065,40.933,41.503,48.531,-0.00118,-0.14836,-0.01742
4.827,0.00612,0.00627,0.00469,-0.00440,0.02539,9.75933,40.065,40.933,41.503,48.531,-0.08763,-0.07677,-0.01749
4.837,0.00607,0.00623,0.00443,0.00504,-0.00087,9.79329,40.065,40.933,41.503,48.752,-0.01368,0.00797,-0.01756
4.847,0.00607,0.00627,0.00434,-0.00938,0.05184,9.76721,40.065,40.933,41.503,48.531,-0.12347,-0.01587,-0.01755
4.857,0.00625,0.00636,0.00443,0.04849,0.00968,9.81352,40.065,40.933,41.503,48.421,-0.09886,0.09405,-0.01777
4.867,0.00652,0.00650,0.00465,0.02270,-0.03054,9.81201,40.065,40.933,41.503,48.531,0.01301,0.10956,-0.01780
4.877,0.00647,0.00659,0.00483,-0.03383,-0.00942,9.78150,40.065,40.933,41.503,48.531,0.02831,-0.00233,-0.01786
4.887,0.00625,0.00654,0.00496,0.00076,0.01621,9.75176,40.065,40.933,41.503,48.531,-0.08396,0.00382,-0.01788
4.897,0.00629,0.00636,0.00510,-0.04005,-0.01471,9.71355,40.065,40.933,41.504,48.531,-0.01938,-0.08706,-0.01781
4.907,0.00616,0.00614,0.00505,-0.00283,-0.05279,9.78870,40.065,40.933,41.504,48.421,0.08994,-0.06361,-0.01781
4.917,0.00616,0.00596,0.00496,0.00556,-0.00173,9.76394,40.065,40.933,41.504,48.531,0.01859,0.02238,-0.01775
4.927,0.00616,0.00583,0.00478,-0.01481,-0.00357,9.74336,40.065,40.933,41.504,48.531,0.02100,-0.08897,-0.01779
4.937,0.00616,0.00569,0.00474,-0.05091,0.00337,9.76327,40.065,40.933,41.504,48.642,-0.00027,-0.19830,-0.01783
4.947,0.00634,0.00565,0.00474,0.03083,-0.01677,9.76896,40.074,40.933,41.504,48.421,0.02776,-0.09048,-0.01782
4.957,0.00643,0.00565,0.00492,-0.01800,0.02339,9.78381,40.074,40.933,41.504,48.421,-0.08352,-0.10059,-0.01783
4.967,0.00652,0.00574,0.00532,0.02870,-0.00257,9.77651,40.074,40.933,41.504,48.310,-0.04503,0.00438,-0.01797
4.977,0.00638,0.00587,0.00559,0.04903,0.00347,9.79305,40.074,40.933,41.504,48.752,-0.03528,0.11611,-0.01807
4.987,0.00625,0.00587,0.00572,0.02251,0.02732,9.78598,40.074,40.933,41.504,48.531,-0.14676,0.13011,-0.01811
4.997,0.00616,0.00586,0.00572,0.01197,0.00607,9.77880,40.074,40.966,41.504,48.421,-0.04789,0.07676,-0.01804
5.007,0.00594,0.00581,0.00568,-0.01451,-0.00730,9.77393,40.074,40.966,41.504,48.752,0.00700,-0.02123,-0.01803
5.017,0.00594,0.00586,0.00550,-0.02128,-0.01064,9.83182,40.074,40.966,41.504,48.421,0.06002,-0.12032,-0.01811
5.027,0.00580,0.00590,0.00537,-0.00610,-0.00295,9.78360,40.074,40.966,41.504,48.531,0.00929,-0.01996,-0.01807
5.037,0.00585,0.00599,0.00523,-0.01392,-0.03103,9.79135,40.074,40.966,41.504,48.531,0.11538,-0.05783,-0.01813
5.047,0.00594,0.00604,0.00532,0.00842,-0.02311,9.78739,40.074,40.966,41.504,48.421,0.13598,0.05299,-0.01790
5.057,0.00603,0.00608,0.00550,0.02602,0.02467,9.78520,40.074,40.966,41.504,48.531,0.02964,0.09064,-0.01787
5.067,0.00625,0.00613,0.00568,0.01548,-0.00266,9.79495,40.074,40.966,41.504,48.421,-0.08334,0.09012,-0.01789
5.077,0.00612,0.00612,0.00586,0.04653,0.00853,9.82197,40.074,40.966,41.504,48.642,-0.06278,0.20125,-0.01805
5.087,0.00598,0.00612,0.00590,0.01519,-0.00502,9.77928,40.074,40.966,41.504,48.421,0.00889,0.11396,-0.01804
5.097,0.00607,0.00612,0.00572,0.01697,-0.02876,9.79067,40.074,40.966,41.505,48.531,0.12142,0.10359,-0.01807
5.107,0.00634,0.00613,0.00563,0.01245,-0.00084,9.77723,40.074,40.966,41.505,48.421,0.01222,0.07484,-0.01813
5.117,0.00652,0.00613,0.00563,0.02099,0.02538,9.78437,40.074,40.966,41.505,48.310,-0.09596,0.10716,-0.01818
5.127,0.00643,0.00608,0.00550,0.02048,-0.00030,9.79536,40.074,40.966,41.505,48.531,0.01614,0.12161,-0.01820
5.137,0.00678,0.00613,0.00527,-0.00203,0.00903,9.79360,40.074,40.966,41.505,48.531,-0.03581,0.02105,-0.01821
5.147,0.00687,0.00608,0.00523,-0.01842,-0.03385,9.76762,40.077,40.966,41.505,48.642,0.06301,-0.03342,-0.01823
5.157,0.00701,0.00613,0.00518,0.01046,-0.01975,9.75119,40.077,40.966,41.505,48.310,0.11783,0.06463,-0.01810
5.167,0.00714,0.00613,0.00536,-0.03234,-0.00594,9.78350,40.077,40.966,41.505,48.421,0.08285,-0.04228,-0.01830
5.177,0.00692,0.00608,0.00550,-0.00416,-0.00560,9.78925,40.077,40.966,41.505,48.531,-0.02321,-0.00436,-0.01831
5.187,0.00692,0.00608,0.00545,0.00282,0.02215,9.79798,40.077,40.966,41.505,48.531,-0.13400,0.01733,-0.01835
5.197,0.00692,0.00609,0.00541,-0.03088,-0.01651,9.83342,40.077,40.958,41.505,48.531,-0.04837,-0.05609,-0.01826
5.207,0.00674,0.00604,0.00532,-0.00825,0.02191,9.76617,40.077,40.958,41.505,48.421,-0.16043,-0.04538,-0.01829
5.217,0.00670,0.00600,0.00514,-0.01835,-0.01345,9.78561,40.077,40.958,41.505,48.421,-0.05144,-0.07368,-0.01825
5.227,0.00643,0.00591,0.00505,-0.02360,-0.05424,9.77012,40.077,40.958,41.505,48.752,0.05933,-0.09310,-0.01827
5.237,0.00616,0.00582,0.00483,-0.04861,0.01596,9.73225,40.077,40.958,41.505,48.531,-0.01021,-0.18067,-0.01832
5.247,0.00603,0.00577,0.00465,0.01483,0.02910,9.76985,40.077,40.958,41.505,48.310,-0.06771,-0.08480,-0.01841
5.257,0.00598,0.00573,0.00474,0.01326,-0.01417,9.80465,40.077,40.958,41.505,48.531,0.00865,-0.00247,-0.01846
5.267,0.00567,0.00555,0.00496,0.00893,-0.07066,9.79729,40.077,40.958,41.505,48.531,0.12025,0.01261,-0.01845
5.277,0.00563,0.00550,0.00519,0.00399,-0.00363,9.77560,40.077,40.958,41.505,48.531,0.00834,0.02475,-0.01845
5.287,0.00572,0.00541,0.00537,0.00111,0.00560,9.78962,40.077,40.958,41.505,48.421,-0.09469,-0.02096,-0.01844
5.297,0.00585,0.00550,0.00550,-0.01247,0.01005,9.79194,40.077,40.958,41.506,48.421,-0.03063,-0.11386,-0.01836
5.307,0.00598,0.00559,0.00541,0.07031,-0.03912,9.72100,40.077,40.958,41.506,48.421,0.01897,-0.01354,-0.01839
5.317,0.00576,0.00564,0.00546,-0.00769,0.00695,9.76706,40.077,40.958,41.506,48.421,-0.07995,-0.06584,-0.01838
5.327,0.00554,0.00581,0.00546,-0.03501,0.01408,9.81153,40.077,40.958,41.506,48.531,-0.08179,-0.17817,-0.01824
5.337,0.00580,0.00595,0.00537,0.01212,0.03782,9.74728,40.077,40.958,41.506,48.531,-0.13674,-0.08071,-0.01844
5.347,0.00603,0.00599,0.00532,-0.02931,-0.00547,9.79839,40.075,40.958,41.506,48.421,-0.03784,-0.13390,-0.01838
5.357,0.00612,0.00608,0.00532,0.03257,-0.01356,9.80473,40.075,40.958,41.506,48.531,0.00044,-0.02788,-0.01844
5.367,0.00625,0.00622,0.00541,0.04668,0.00575,9.79383,40.075,40.958,41.506,48.531,-0.01229,0.08429,-0.01847
5.377,0.00629,0.00626,0.00532,-0.00286,0.01248,9.79600,40.075,40.958,41.506,48.752,-0.07056,-0.01266,-0.01840
5.387,0.00629,0.00635,0.00528,0.04279,0.00991,9.78937,40.075,40.958,41.506,48.752,-0.06520,0.10031,-0.01856
5.397,0.00634,0.00639,0.00528,0.01923,0.00926,9.78968,40.075,40.976,41.506,48.531,0.01046,0.18440,-0.01862
5.407,0.00625,0.00639,0.00523,0.00500,0.02425,9.73124,40.075,40.976,41.506,48.642,-0.06855,0.10452,-0.01859
5.417,0.00603,0.00635,0.00510,-0.01092,0.03775,9.80588,40.075,40.976,41.506,48.531,-0.14414,0.02081,-0.01845
5.427,0.00585,0.00639,0.00483,-0.00304,-0.03399,9.78699,40.075,40.976,41.506,48.421,-0.03204,0.00816,-0.01845
5.437,0.00576,0.00648,0.00474,0.02295,-0.01180,9.79101,40.075,40.976,41.506,48.531,0.03858,0.09626,-0.01846
5.447,0.00567,0.00644,0.00452,-0.00550,-0.00928,9.84153,40.075,40.976,41.506,48.531,0.05203,-0.01569,-0.01855
5.457,0.00581,0.00635,0.00456,-0.04866,-0.02803,9.77671,40.075,40.976,41.506,48.531,0.09533,-0.11971,-0.01870
5.467,0.00589,0.00626,0.00474,-0.01942,-0.00935,9.75342,40.075,40.976,41.506,48.531,-0.01586,-0.10427,-0.01869
5.477,0.00607,0.00626,0.00496,-0.02668,0.04587,9.76435,40.075,40.976,41.506,48.531,-0.12564,-0.12696,-0.01869
5.487,0.00598,0.00626,0.00519,-0.01826,-0.01276,9.76229,40.075,40.976,41.506,48.531,-0.01429,-0.11598,-0.01871
5.497,0.00576,0.00608,0.00537,0.00510,-0.02670,9.75965,40.075,40.976,41.508,48.642,0.07069,-0.04348,-0.01869
5.507,0.00576,0.00603,0.00563,0.00660,-0.03121,9.78219,40.075,40.976,41.508,48.531,0.16096,0.02265,-0.01858
5.517,0.00580,0.00603,0.00568,-0.01532,-0.03952,9.78255,40.075,40.976,41.508,48.531,0.22051,-0.07232,-0.01891
5.527,0.00576,0.00608,0.00550,-0.00184,-0.04657,9.81038,40.075,40.976,41.508,48.642,0.29263,0.01403,-0.01854
5.537,0.00580,0.00603,0.00528,-0.04788,0.01106,9.75761,40.075,40.976,41.508,48.421,0.20608,-0.05742,-0.01887
5.547,0.00598,0.00608,0.00514,-0.00391,0.01163,9.77388,40.077,40.976,41.508,48.531,0.09476,-0.04344,-0.01886
5.557,0.00603,0.00608,0.00519,0.00740,-0.00050,9.78203,40.077,40.976,41.508,48.531,0.01312,0.03366,-0.01880
5.567,0.00621,0.00603,0.00528,0.00166,-0.03209,9.76409,40.077,40.976,41.508,48.421,0.12418,0.01849,-0.01883
5.577,0.00629,0.00621,0.00550,-0.01380,-0.01218,9.80412,40.077,40.976,41.508,48.642,0.07112,-0.08081,-0.01902
5.587,0.00643,0.00626,0.00545,-0.01058,0.03102,9.74400,40.077,40.976,41.508,48.531,-0.04063,-0.07265,-0.01904
5.597,0.00625,0.00621,0.00545,0.02882,-0.01142,9.77133,40.077,40.978,41.508,48.531,0.00490,0.02966,-0.01908
5.607,0.00603,0.00612,0.00541,0.00534,-0.01289,9.75515,40.077,40.978,41.508,48.421,0.11659,0.03233,-0.01910
5.617,0.00607,0.00612,0.00523,-0.00966,-0.03365,9.79621,40.077,40.978,41.508,48.310,0.19177,-0.05090,-0.01934
5.627,0.00634,0.00630,0.00510,-0.02827,0.01440,9.77054,40.077,40.978,41.508,48.531,0.08825,-0.09397,-0.01946
5.637,0.00629,0.00644,0.00496,0.00168,-0.00633,9.78003,40.077,40.978,41.508,48.531,0.03862,0.00663,-0.01936
5.647,0.00629,0.00648,0.00483,0.03473,-0.02931,9.79356,40.077,40.978,41.508,48.531,0.10158,0.09979,-0.01926
5.657,0.00598,0.00652,0.00492,0.03137,-0.03438,9.78151,40.077,40.978,41.508,48.531,0.18766,0.17219,-0.01909
5.667,0.00603,0.00661,0.00501,-0.03543,-0.05525,9.73791,40.077,40.978,41.508,48.531,0.22564,0.06691,-0.01948
5.677,0.00580,0.00670,0.00510,-0.01182,0.01244,9.81445,40.077,40.978,41.508,48.421,0.12342,0.02031,-0.01964
5.687,0.00580,0.00675,0.00510,-0.02351,0.02797,9.79502,40.077,40.978,41.508,48.642,0.02474,-0.03397,-0.01973
5.697,0.00580,0.00683,0.00501,0.01323,0.02342,9.79922,40.077,40.978,41.510,48.531,-0.06825,0.03001,-0.01976
5.707,0.00576,0.00675,0.00496,-0.00910,0.01664,9.79997,40.077,40.978,41.510,48.531,-0.10553,-0.07681,-0.01961
5.717,0.00545,0.00666,0.00492,-0.01771,-0.00573,9.79683,40.077,40.978,41.510,48.421,0.00567,-0.09826,-0.01961
5.727,0.00554,0.00670,0.00483,0.01588,-0.01666,9.73914,40.077,40.978,41.510,48.421,0.05449,0.00309,-0.01956
5.737,0.00567,0.00684,0.00474,0.02267,-0.01683,9.77937,40.077,40.978,41.510,48.421,0.09071,0.10958,-0.01944
5.747,0.00585,0.00684,0.00483,-0.02761,-0.02991,9.82989,40.076,40.978,41.510,48.310,0.12395,0.00201,-0.01965
5.757,0.00585,0.00684,0.00492,-0.00094,-0.01250,9.77844,40.076,40.978,41.510,48.531,0.01261,-0.01457,-0.01968
5.767,0.00594,0.00684,0.00492,-0.02568,0.02479,9.76769,40.076,40.978,41.510,48.531,-0.07256,-0.08791,-0.01965
5.777,0.00607,0.00692,0.00505,-0.01522,0.02336,9.76452,40.076,40.978,41.510,48.421,-0.18472,-0.09032,-0.01967
5.787,0.00652,0.00701,0.00519,-0.02499,-0.00092,9.76702,40.076,40.978,41.510,48.642,-0.07729,-0.12214,-0.01961
5.797,0.00660,0.00701,0.00527,0.01720,-0.01571,9.79101,40.076,40.981,41.510,48.421,-0.00938,-0.03272,-0.01969
5.807,0.00674,0.00692,0.00550,-0.04592,-0.02536,9.76062,40.076,40.981,41.510,48.531,0.05287,-0.12593,-0.01975
5.817,0.00660,0.00679,0.00563,-0.03416,-0.01518,9.78274,40.076,40.981,41.510,48.531,0.10189,-0.22689,-0.01990
5.827,0.00638,0.00665,0.00577,0.00168,-0.03439,9.76611,40.076,40.981,41.510,48.752,0.14543,-0.12364,-0.01970
5.837,0.00643,0.00666,0.00572,-0.01577,-0.00267,9.78597,40.076,40.981,41.510,48.863,0.03628,-0.09735,-0.01967
5.847,0.00660,0.00670,0.00563,0.00715,0.00502,9.82704,40.076,40.981,41.510,48.531,-0.01169,0.00430,-0.01967
5.857,0.00660,0.00679,0.00568,-0.01615,-0.02694,9.76076,40.076,40.981,41.510,48.752,0.08515,-0.05226,-0.01973
5.867,0.00651,0.00679,0.00577,0.01687,-0.00549,9.74913,40.076,40.981,41.510,48.310,0.04825,0.05324,-0.01963
5.877,0.00638,0.00683,0.00581,0.01822,0.02882,9.79037,40.076,40.981,41.510,48.421,-0.06061,0.08001,-0.01966
5.887,0.00629,0.00679,0.00590,0.01698,-0.00299,9.80702,40.076,40.981,41.510,48.642,0.04869,0.10688,-0.01967
5.897,0.00629,0.00679,0.00604,-0.00152,0.00361,9.77876,40.076,40.981,41.510,48.421,-0.00946,0.01048,-0.01973
5.907,0.00625,0.00670,0.00613,-0.03710,0.00513,9.78221,40.076,40.981,41.510,48.310,-0.01961,-0.10168,-0.01973
5.917,0.00620,0.00661,0.00613,0.00444,-0.02307,9.81471,40.076,40.981,41.510,48.421,0.06734,-0.02978,-0.01971
5.927,0.00611,0.00652,0.00621,0.03289,-0.03244,9.78192,40.076,40.981,41.510,48.421,0.12182,0.06900,-0.01959
5.937,0.00594,0.00647,0.00617,-0.00048,-0.02321,9.78976,40.076,40.981,41.510,48.531,0.14342,-0.04186,-0.01987
5.947,0.00598,0.00652,0.00604,-0.00722,-0.01592,9.81181,40.076,40.981,41.510,48.421,0.03023,-0.04262,-0.01989
5.957,0.00620,0.00656,0.00581,-0.02025,0.02712,9.75724,40.076,40.981,41.510,48.531,-0.07435,-0.08475,-0.01990
5.967,0.00629,0.00652,0.00581,-0.04790,-0.03410,9.79644,40.076,40.981,41.510,48.310,0.01756,-0.15038,-0.01988
5.977,0.00629,0.00652,0.00604,-0.00627,0.01391,9.77788,40.076,40.981,41.510,48.531,-0.05662,-0.06538,-0.01993
5.987,0.00611,0.00643,0.00608,-0.03409,0.01170,9.78460,40.076,40.981,41.510,48.752,-0.06658,-0.17780,-0.01984
5.997,0.00607,0.00627,0.00613,-0.01966,-0.02391,9.75993,40.076,40.943,41.510,48.421,0.04111,-0.14536,-0.01987
6.007,0.00603,0.00604,0.00617,-0.04751,-0.02725,9.77590,40.076,40.943,41.510,48.421,0.11590,-0.22932,-0.02000
6.017,0.00616,0.00591,0.00604,0.00253,-0.02957,9.82760,40.076,40.943,41.510,48.421,0.14127,-0.11968,-0.01978
6.027,0.00612,0.00578,0.00599,-0.01960,0.00182,9.76421,40.076,40.943,41.510,48.531,0.02899,-0.11624,-0.01980
6.037,0.00598,0.00569,0.00590,0.00621,-0.00087,9.78967,40.076,40.943,41.510,48.421,0.01157,-0.00510,-0.01978
6.047,0.00598,0.00564,0.00572,-0.00218,0.02054,9.79555,40.076,40.943,41.510,48.531,-0.10101,-0.01163,-0.01979
6.057,0.00603,0.00569,0.00550,0.00751,0.02140,9.78715,40.076,40.943,41.510,48.310,-0.14614,0.09176,-0.02003
6.067,0.00621,0.00573,0.00528,-0.00683,-0.00565,9.78200,40.076,40.943,41.510,48.531,-0.05529,0.02493,-0.01994
6.077,0.00634,0.00569,0.00536,0.00725,0.01064,9.78560,40.076,40.943,41.510,48.310,-0.09726,0.12965,-0.02008
6.087,0.00621,0.00569,0.00550,0.05802,0.03308,9.77685,40.076,40.943,41.510,48.421,-0.14431,0.23209,-0.02032
6.097,0.00612,0.00569,0.00545,-0.00188,0.05134,9.82313,40.076,40.943,41.511,48.421,-0.20505,0.13696,-0.02004
6.107,0.00621,0.00564,0.00532,0.01038,-0.02008,9.77009,40.076,40.943,41.511,48.531,-0.09543,0.11111,-0.02000
6.117,0.00634,0.00569,0.00532,0.01279,0.00300,9.77682,40.076,40.943,41.511,48.421,0.00664,0.06367,-0.01997
6.127,0.00634,0.00578,0.00523,-0.00423,-0.00250,9.79808,40.076,40.943,41.511,48.421,0.01675,-0.04874,-0.02000
6.137,0.00634,0.00591,0.00514,-0.00368,0.02201,9.78026,40.076,40.943,41.511,48.531,-0.09415,-0.02805,-0.02003
6.147,0.00647,0.00596,0.00519,0.01416,0.01114,9.79608,40.076,40.943,41.511,48.421,-0.06559,0.08124,-0.02020
6.157,0.00656,0.00605,0.00514,-0.00204,-0.02284,9.79136,40.076,40.943,41.511,48.531,0.03682,0.03333,-0.02020
6.167,0.00665,0.00609,0.00514,-0.02343,-0.01308,9.79885,40.076,40.943,41.511,48.531,0.06248,-0.07699,-0.02031
6.177,0.00661,0.00600,0.00523,0.02187,-0.04374,9.76866,40.076,40.943,41.511,48.531,0.14005,0.00507,-0.02018
6.187,0.00652,0.00591,0.00541,-0.01882,0.01209,9.73361,40.076,40.943,41.511,48.642,0.04166,-0.04890,-0.02028
6.197,0.00625,0.00592,0.00559,-0.00441,-0.00198,9.83949,40.076,40.930,41.511,48.531,-0.04724,0.01951,-0.02030
6.207,0.00607,0.00596,0.00559,-0.00380,-0.01014,9.80737,40.076,40.930,41.511,48.531,0.05763,-0.02158,-0.02032
6.217,0.00607,0.00596,0.00568,-0.04094,0.00507,9.77737,40.076,40.930,41.511,48.531,0.01580,-0.12613,-0.02040
6.227,0.00629,0.00605,0.00581,-0.00315,0.00670,9.79039,40.076,40.930,41.511,48.310,-0.03551,-0.02575,-0.02044
6.237,0.00603,0.00600,0.00586,0.00196,-0.03848,9.80392,40.076,40.930,41.511,48.531,0.07641,-0.00977,-0.02046
6.247,0.00594,0.00583,0.00568,-0.04418,-0.01075,9.76458,40.076,40.930,41.511,48.531,0.07037,-0.12236,-0.02062
6.257,0.00581,0.00565,0.00550,0.03376,-0.00863,9.78260,40.076,40.930,41.511,48.421,0.06339,-0.00985,-0.02051
6.267,0.00598,0.00560,0.00514,0.01154,0.01713,9.75864,40.076,40.930,41.511,48.531,-0.03820,0.03822,-0.02050
6.277,0.00581,0.00560,0.00501,0.03998,0.01605,9.79858,40.076,40.930,41.511,48.421,-0.06907,0.14660,-0.02062
6.287,0.00590,0.00560,0.00501,0.04381,0.01042,9.82234,40.076,40.930,41.511,48.421,-0.06052,0.25910,-0.02075
6.297,0.00585,0.00565,0.00496,0.02064,-0.03533,9.76378,40.076,40.930,41.511,48.421,0.03951,0.20754,-0.02076
6.307,0.00585,0.00574,0.00492,0.02691,0.01509,9.78445,40.076,40.930,41.511,48.531,-0.06539,0.16654,-0.02076
6.317,0.00563,0.00574,0.00492,0.02898,0.00321,9.78452,40.076,40.930,41.511,48.531,0.04700,0.17416,-0.02078
6.327,0.00603,0.00587,0.00492,-0.01581,-0.03261,9.78612,40.076,40.930,41.511,48.531,0.10052,0.07493,-0.02091
6.337,0.00621,0.00601,0.00496,-0.00297,-0.01398,9.80417,40.076,40.930,41.511,48.531,0.07788,-0.03586,-0.02110
6.347,0.00621,0.00601,0.00478,0.01283,-0.00615,9.79375,40.070,40.930,41.511,48.421,0.03788,0.06999,-0.02100
6.357,0.00598,0.00587,0.00456,0.01936,0.01486,9.74260,40.070,40.930,41.511,48.421,-0.06832,0.10716,-0.02101
6.367,0.00599,0.00574,0.00447,-0.01522,-0.00508,9.75261,40.070,40.930,41.511,48.421,-0.01825,0.00685,-0.02095
6.377,0.00599,0.00570,0.00452,0.00870,0.01720,9.78999,40.070,40.930,41.511,48.310,-0.11732,0.05984,-0.02101
6.387,0.00616,0.00583,0.00465,-0.03229,-0.01472,9.79802,40.070,40.930,41.511,48.421,-0.04601,-0.02738,-0.02090
6.397,0.00585,0.00590,0.00501,0.00633,-0.06317,9.75140,40.070,40.962,41.511,48.310,0.06487,-0.01023,-0.02090
6.407,0.00572,0.00595,0.00514,0.04897,-0.01541,9.76983,40.070,40.962,41.511,48.421,0.07444,0.10149,-0.02078
6.417,0.00540,0.00595,0.00514,0.00665,-0.00128,9.77882,40.070,40.962,41.511,48.531,-0.00755,0.02487,-0.02085
6.427,0.00549,0.00586,0.00523,-0.00522,-0.00835,9.77358,40.070,40.962,41.511,48.421,0.07247,-0.05375,-0.02089
6.437,0.00563,0.00577,0.00528,0.00467,-0.03580,9.79508,40.070,40.962,41.511,48.752,0.16924,0.00354,-0.02079
6.447,0.00585,0.00577,0.00514,0.01244,-0.03156,9.77217,40.070,40.962,41.511,48.421,0.19416,0.11311,-0.02046
6.457,0.00567,0.00573,0.00496,-0.00277,-0.01603,9.76237,40.070,40.962,41.511,48.531,0.12552,0.02439,-0.02071
6.467,0.00576,0.00573,0.00478,0.03893,-0.02124,9.78389,40.070,40.962,41.511,48.421,0.12487,0.13667,-0.02048
6.477,0.00581,0.00582,0.00492,-0.01766,-0.01185,9.80169,40.070,40.962,41.511,48.421,0.09942,0.02689,-0.02070
6.487,0.00607,0.00599,0.00519,0.00668,-0.03622,9.77659,40.070,40.962,41.511,48.310,0.21134,0.03906,-0.02068
6.497,0.00629,0.00626,0.00536,0.01311,0.01713,9.75382,40.070,40.962,41.513,48.531,0.09994,0.05258,-0.02066
#2025/09/15 12:19:08
