#2025/09/15 16:29:47
# data rotate to sensor frame
time,wx,wy,wz,ax,ay,az,T,pitch,roll,yaw
0.012,0.00295,-0.00012,-0.00367,-0.01195,0.07878,-9.84465,37.141,38.083,38.325,43.780,-0.50526,-0.22610,0.00091
0.022,0.00286,-0.00056,-0.00380,0.03631,-0.00185,-9.79336,37.141,38.083,38.325,43.559,-0.61838,-0.22923,0.00097
0.032,0.00286,-0.00021,-0.00385,-0.00085,0.04599,-9.81910,37.141,38.083,38.325,43.890,-0.72788,-0.25815,0.00135
0.042,0.00277,0.00020,-0.00385,-0.05843,0.04002,-9.79922,37.141,38.083,38.325,43.890,-0.82411,-0.31815,0.00221
0.052,0.00295,0.00033,-0.00393,-0.03408,0.05132,-9.83254,37.141,38.083,38.314,43.559,-0.92700,-0.36549,0.00296
0.062,0.00304,0.00024,-0.00411,-0.02529,0.01506,-9.80135,37.141,38.083,38.314,43.669,-1.02824,-0.41668,0.00388
0.072,0.00313,-0.00020,-0.00407,-0.04786,-0.00020,-9.81183,37.141,38.083,38.314,43.890,-1.12228,-0.48042,0.00511
0.082,0.00309,-0.00083,-0.00398,-0.04084,0.08059,-9.77845,37.141,38.083,38.314,43.890,-1.22561,-0.52706,0.00611
0.092,0.00304,-0.00065,-0.00407,0.03022,0.06933,-9.83155,37.141,38.083,38.314,43.890,-1.33631,-0.55090,0.00668
0.102,0.00322,-0.00007,-0.00411,-0.04195,0.03621,-9.84818,37.140,38.083,38.314,43.669,-1.43672,-0.60250,0.00797
0.112,0.00335,0.00024,-0.00420,-0.01207,-0.00196,-9.77306,37.140,38.083,38.314,43.669,-1.53864,-0.65066,0.00926
0.122,0.00349,0.00033,-0.00403,-0.00891,0.00714,-9.81531,37.140,38.083,38.314,43.780,-1.64186,-0.69657,0.01058
0.132,0.00375,0.00042,-0.00385,-0.01230,0.04004,-9.83560,37.140,38.083,38.314,43.890,-1.74629,-0.73938,0.01188
0.142,0.00388,0.00073,-0.00371,0.00711,0.05381,-9.80343,37.140,38.083,38.314,43.890,-1.85347,-0.77570,0.01306
0.152,0.00393,0.00096,-0.00362,-0.01923,0.02968,-9.81306,37.140,38.077,38.314,43.890,-1.95730,-0.82122,0.01460
0.162,0.00420,0.00105,-0.00371,-0.00221,0.02681,-9.80976,37.140,38.077,38.314,43.890,-2.06293,-0.86294,0.01610
0.172,0.00429,0.00118,-0.00398,-0.04184,0.03566,-9.78022,37.140,38.077,38.314,43.669,-2.16483,-0.91268,0.01797
0.182,0.00433,0.00132,-0.00403,0.02165,0.06435,-9.79980,37.140,38.077,38.314,43.890,-2.27327,-0.94627,0.01932
0.192,0.00451,0.00150,-0.00385,-0.04762,0.00828,-9.80101,37.140,38.077,38.314,43.890,-2.37380,-0.99936,0.02150
0.202,0.00433,0.00185,-0.00376,-0.03004,0.00833,-9.84637,37.140,38.077,38.314,43.669,-2.47570,-1.04882,0.02364
0.212,0.00437,0.00203,-0.00376,-0.00940,0.05734,-9.83970,37.140,38.077,38.314,43.669,-2.58089,-1.09020,0.02549
0.222,0.00433,0.00194,-0.00371,-0.03757,0.07441,-9.80172,37.140,38.077,38.314,43.890,-2.68477,-1.13540,0.02761
0.232,0.00433,0.00194,-0.00362,-0.00138,0.05598,-9.81312,37.140,38.077,38.314,43.780,-2.79081,-1.17574,0.02956
0.242,0.00455,0.00190,-0.00353,0.00208,0.02987,-9.82825,37.140,38.077,38.314,43.890,-2.89632,-1.21723,0.03166
0.252,0.00446,0.00185,-0.00362,0.00376,0.04378,-9.80660,37.140,38.077,38.322,43.890,-3.00253,-1.25759,0.03377
0.262,0.00437,0.00199,-0.00385,-0.01946,0.03518,-9.77289,37.140,38.077,38.322,43.890,-3.10669,-1.30221,0.03619
0.272,0.00446,0.00203,-0.00403,-0.01921,0.03004,-9.81829,37.140,38.077,38.322,43.780,-3.21080,-1.34719,0.03870
0.282,0.00442,0.00190,-0.00412,-0.01403,0.02009,-9.82787,37.140,38.077,38.322,43.669,-3.31490,-1.39200,0.04129
0.292,0.00420,0.00181,-0.00407,-0.00041,0.00953,-9.82132,37.140,38.077,38.322,43.669,-3.41962,-1.43544,0.04388
0.302,0.00415,0.00167,-0.00380,0.04225,0.07924,-9.77928,37.108,38.077,38.322,43.669,-3.52784,-1.46863,0.04592
0.312,0.00393,0.00163,-0.00371,0.01713,0.02284,-9.80282,37.108,38.077,38.322,43.890,-3.63406,-1.50846,0.04845
0.322,0.00366,0.00158,-0.00385,-0.03036,0.03816,-9.76169,37.108,38.077,38.322,43.890,-3.73756,-1.55385,0.05140
0.332,0.00375,0.00172,-0.00394,-0.05106,0.03627,-9.79554,37.108,38.077,38.322,43.890,-3.83996,-1.60204,0.05462
0.342,0.00370,0.00190,-0.00407,-0.00381,0.06288,-9.80593,37.108,38.077,38.322,43.669,-3.94576,-1.64304,0.05745
0.352,0.00384,0.00170,-0.00434,-0.03199,0.03448,-9.82400,37.108,38.011,38.322,43.669,-4.04948,-1.68897,0.06069
0.362,0.00380,0.00148,-0.00465,-0.04716,0.02565,-9.77376,37.108,38.011,38.322,44.001,-4.15193,-1.73711,0.06418
0.372,0.00366,0.00134,-0.00492,-0.03351,0.03065,-9.81796,37.108,38.011,38.322,43.890,-4.25534,-1.78344,0.06761
0.382,0.00362,0.00121,-0.00492,-0.00498,0.03938,-9.82954,37.108,38.011,38.322,43.890,-4.36025,-1.82602,0.07086
0.392,0.00375,0.00107,-0.00465,-0.03062,0.00886,-9.80215,37.108,38.011,38.322,43.890,-4.46346,-1.87314,0.07453
0.402,0.00380,0.00121,-0.00434,0.01342,0.03818,-9.79206,37.108,38.011,38.322,43.890,-4.56936,-1.91387,0.07777
0.412,0.00388,0.00112,-0.00416,0.01667,0.02935,-9.80446,37.108,38.011,38.322,43.890,-4.67545,-1.95471,0.08111
0.422,0.00388,0.00090,-0.00429,0.00303,0.03879,-9.80377,37.108,38.011,38.322,43.780,-4.78125,-1.99673,0.08461
0.432,0.00380,0.00085,-0.00447,0.01797,-0.00641,-9.82919,37.108,38.011,38.322,43.559,-4.88675,-2.03902,0.08821
0.442,0.00371,0.00076,-0.00461,-0.02043,0.02437,-9.78731,37.108,38.011,38.322,43.890,-4.99102,-2.08402,0.09213
0.452,0.00357,0.00072,-0.00465,0.01064,0.01092,-9.78790,37.108,38.011,38.321,43.890,-5.09633,-2.12638,0.09589
0.462,0.00340,0.00072,-0.00461,-0.01143,-0.01014,-9.81040,37.108,38.011,38.321,44.001,-5.20047,-2.17199,0.10004
0.472,0.00322,0.00089,-0.00443,-0.01292,0.01672,-9.80653,37.108,38.011,38.321,43.890,-5.30521,-2.21670,0.10417
0.482,0.00313,0.00098,-0.00411,0.03237,0.02516,-9.85141,37.108,38.011,38.321,43.890,-5.41137,-2.25645,0.10792
0.492,0.00313,0.00098,-0.00376,0.01463,0.05223,-9.84198,37.108,38.011,38.321,43.890,-5.51699,-2.29685,0.11180
0.502,0.00317,0.00102,-0.00349,0.03198,0.03002,-9.77263,37.097,38.011,38.321,43.780,-5.62276,-2.33631,0.11566
0.512,0.00312,0.00107,-0.00344,-0.02132,0.04195,-9.80831,37.097,38.011,38.321,43.890,-5.72706,-2.38038,0.12005
0.522,0.00304,0.00111,-0.00353,-0.00808,0.03365,-9.81022,37.097,38.011,38.321,43.890,-5.83195,-2.42369,0.12444
0.532,0.00286,0.00120,-0.00376,-0.06896,0.03845,-9.77071,37.097,38.011,38.321,43.890,-5.93437,-2.47190,0.12941
0.542,0.00264,0.00116,-0.00402,-0.00390,0.04516,-9.82554,37.097,38.011,38.321,43.780,-6.03924,-2.51446,0.13389
0.552,0.00259,0.00086,-0.00407,0.00147,0.04373,-9.81385,37.097,38.081,38.321,43.890,-6.14446,-2.55671,0.13842
0.562,0.00273,0.00060,-0.00389,-0.02062,0.00558,-9.78238,37.097,38.081,38.321,43.780,-6.24826,-2.60209,0.14334
0.572,0.00295,0.00055,-0.00367,-0.06344,0.03310,-9.78352,37.097,38.081,38.321,43.780,-6.35091,-2.64990,0.14862
0.582,0.00330,0.00051,-0.00353,0.02216,0.04411,-9.77235,37.097,38.081,38.321,44.001,-6.45636,-2.69048,0.15318
0.592,0.00326,0.00042,-0.00358,-0.01805,0.06001,-9.81161,37.097,38.081,38.321,43.669,-6.56099,-2.73386,0.15813
0.602,0.00344,0.00042,-0.00362,-0.01670,0.06247,-9.77141,37.097,38.081,38.321,43.890,-6.66547,-2.77700,0.16312
0.612,0.00335,0.00055,-0.00362,-0.03010,0.03112,-9.80387,37.097,38.081,38.321,43.890,-6.76937,-2.82226,0.16846
0.622,0.00339,0.00060,-0.00367,-0.00263,0.07239,-9.83855,37.097,38.081,38.321,44.001,-6.87444,-2.86416,0.17347
0.632,0.00313,0.00055,-0.00371,0.00473,0.05763,-9.80024,37.097,38.081,38.321,43.669,-6.97976,-2.90604,0.17855
0.642,0.00313,0.00055,-0.00380,0.01494,0.07047,-9.78378,37.097,38.081,38.321,43.890,-7.08545,-2.94679,0.18357
0.652,0.00304,0.00055,-0.00376,0.01734,0.00860,-9.81440,37.097,38.081,38.320,43.890,-7.19066,-2.98922,0.18888
0.662,0.00335,0.00055,-0.00362,0.04230,0.05380,-9.81332,37.097,38.081,38.320,43.890,-7.29721,-3.02861,0.19387
0.672,0.00366,0.00064,-0.00344,-0.01165,0.03254,-9.78611,37.097,38.081,38.320,43.780,-7.40193,-3.07245,0.19951
0.682,0.00371,0.00060,-0.00331,0.00522,0.04919,-9.80140,37.097,38.081,38.320,43.890,-7.50747,-3.11472,0.20503
0.692,0.00353,0.00060,-0.00335,-0.00982,0.03910,-9.78050,37.097,38.081,38.320,43.780,-7.61231,-3.15826,0.21078
0.702,0.00348,0.00046,-0.00335,-0.00008,0.07292,-9.80235,37.148,38.081,38.320,43.669,-7.71794,-3.20032,0.21642
0.712,0.00335,0.00046,-0.00331,-0.02216,0.00176,-9.77192,37.148,38.081,38.320,43.890,-7.82187,-3.24571,0.22259
0.722,0.00353,0.00042,-0.00327,0.01603,0.08498,-9.80838,37.148,38.081,38.320,43.780,-7.92792,-3.28646,0.22820
0.732,0.00375,0.00038,-0.00322,-0.00689,0.02223,-9.78683,37.148,38.081,38.320,43.890,-8.03268,-3.33033,0.23431
0.742,0.00406,0.00015,-0.00322,-0.04247,0.06589,-9.80773,37.148,38.081,38.320,43.780,-8.13717,-3.37540,0.24068
0.752,0.00415,0.00001,-0.00331,0.00964,0.06614,-9.79825,37.148,38.101,38.320,43.890,-8.24306,-3.41725,0.24668
0.762,0.00447,-0.00003,-0.00340,-0.02212,0.03550,-9.78375,37.148,38.101,38.320,43.890,-8.34768,-3.46183,0.25314
0.772,0.00442,-0.00008,-0.00336,-0.04443,0.03326,-9.80073,37.148,38.101,38.320,43.890,-8.45180,-3.50792,0.25990
0.782,0.00442,-0.00003,-0.00340,-0.03855,0.05676,-9.79680,37.148,38.101,38.320,43.669,-8.55636,-3.55308,0.26662
0.792,0.00429,0.00006,-0.00349,-0.04007,0.05672,-9.80164,37.148,38.101,38.320,43.890,-8.66098,-3.59841,0.27343
0.802,0.00420,0.00010,-0.00358,-0.00260,0.05525,-9.79624,37.148,38.101,38.320,43.890,-8.76649,-3.64157,0.28000
0.812,0.00411,0.00019,-0.00353,-0.01332,0.03231,-9.84843,37.148,38.101,38.320,43.669,-8.87108,-3.68577,0.28681
0.822,0.00420,0.00024,-0.00358,-0.02229,0.05197,-9.79108,37.148,38.101,38.320,43.890,-8.97566,-3.73004,0.29371
0.832,0.00393,0.00024,-0.00371,0.00524,0.04423,-9.79333,37.148,38.101,38.320,43.669,-9.08085,-3.77295,0.30047
0.842,0.00384,0.00015,-0.00380,0.01293,0.04777,-9.79251,37.148,38.101,38.320,43.780,-9.18627,-3.81537,0.30724
0.852,0.00398,0.00019,-0.00385,-0.01420,0.05703,-9.79871,37.148,38.101,38.320,43.890,-9.29126,-3.85919,0.31431
0.862,0.00362,0.00033,-0.00398,-0.07151,0.03450,-9.79683,37.148,38.101,38.327,43.890,-9.39473,-3.90675,0.32207
0.872,0.00344,0.00041,-0.00398,-0.00106,0.02037,-9.78961,37.148,38.101,38.327,43.780,-9.49965,-3.95077,0.32932
0.882,0.00349,0.00037,-0.00394,0.02033,0.00909,-9.79228,37.148,38.101,38.327,43.890,-9.60494,-3.99386,0.33650
0.892,0.00326,0.00032,-0.00385,0.01928,0.05942,-9.77325,37.148,38.101,38.327,43.780,-9.71035,-4.03583,0.34358
0.902,0.00349,0.00041,-0.00385,-0.03914,0.00079,-9.77360,37.147,38.101,38.327,43.780,-9.81373,-4.08220,0.35148
0.912,0.00357,0.00037,-0.00389,-0.05200,0.09564,-9.82924,37.147,38.101,38.327,43.780,-9.91767,-4.12713,0.35921
0.922,0.00357,0.00037,-0.00385,0.01085,0.02664,-9.79201,37.147,38.101,38.327,43.669,-10.02244,-4.17034,0.36672
0.932,0.00344,0.00059,-0.00385,0.00636,0.08640,-9.80923,37.147,38.101,38.327,43.669,-10.12784,-4.21268,0.37416
0.942,0.00362,0.00090,-0.00394,-0.01045,0.07580,-9.82372,37.147,38.101,38.327,43.890,-10.23279,-4.25613,0.38188
0.952,0.00366,0.00094,-0.00403,-0.03410,0.04030,-9.79790,37.147,38.127,38.327,43.890,-10.33706,-4.30158,0.39003
0.962,0.00362,0.00103,-0.00398,-0.01366,0.04475,-9.80146,37.147,38.127,38.327,43.890,-10.44193,-4.34601,0.39807
0.972,0.00375,0.00112,-0.00403,-0.00643,0.04416,-9.77288,37.147,38.127,38.327,43.669,-10.54665,-4.38999,0.40611
0.982,0.00366,0.00112,-0.00403,0.02572,0.01070,-9.79105,37.147,38.127,38.327,43.890,-10.65177,-4.43306,0.41407
0.992,0.00375,0.00121,-0.00403,-0.04864,0.03508,-9.81724,37.147,38.127,38.327,44.001,-10.75565,-4.47938,0.42270
1.002,0.00375,0.00139,-0.00407,-0.03817,0.00901,-9.84480,37.147,38.127,38.327,43.890,-10.85920,-4.52564,0.43141
1.012,0.00371,0.00116,-0.00421,0.03191,0.03539,-9.77146,37.147,38.127,38.327,43.890,-10.96414,-4.56789,0.43944
1.022,0.00380,0.00099,-0.00425,-0.00665,0.03642,-9.79133,37.147,38.127,38.327,43.890,-11.06845,-4.61207,0.44792
1.032,0.00384,0.00067,-0.00421,0.00155,0.07097,-9.81721,37.147,38.127,38.327,43.669,-11.17333,-4.65531,0.45630
1.042,0.00384,0.00058,-0.00416,-0.05754,0.04488,-9.84145,37.147,38.127,38.327,43.669,-11.27665,-4.70170,0.46536
1.052,0.00380,0.00054,-0.00421,0.02362,0.02107,-9.78107,37.147,38.127,38.327,43.890,-11.38128,-4.74480,0.47386
1.062,0.00393,0.00045,-0.00421,0.04950,0.06198,-9.80127,37.147,38.127,38.317,44.001,-11.48692,-4.78607,0.48208
1.072,0.00402,0.00005,-0.00416,-0.03240,0.05229,-9.77545,37.147,38.127,38.317,43.669,-11.59084,-4.83124,0.49115
1.082,0.00398,-0.00013,-0.00398,0.03048,0.02274,-9.76175,37.147,38.127,38.317,43.669,-11.69537,-4.87399,0.49982
1.092,0.00438,-0.00022,-0.00389,0.05573,0.07981,-9.77078,37.147,38.127,38.317,43.890,-11.80059,-4.91455,0.50810
1.102,0.00415,-0.00026,-0.00380,-0.00112,0.04285,-9.83838,37.107,38.127,38.317,44.001,-11.90452,-4.95834,0.51714
1.112,0.00424,-0.00013,-0.00371,0.01512,0.00394,-9.82403,37.107,38.127,38.317,43.890,-12.00860,-5.00221,0.52626
1.122,0.00415,-0.00008,-0.00362,-0.03439,0.04288,-9.82888,37.107,38.127,38.317,43.669,-12.11213,-5.04761,0.53578
1.132,0.00424,0.00005,-0.00358,-0.02691,0.07959,-9.77918,37.107,38.127,38.317,43.890,-12.21604,-5.09206,0.54517
1.142,0.00420,0.00027,-0.00349,-0.00055,0.05366,-9.82115,37.107,38.127,38.317,43.780,-12.32037,-5.13594,0.55452
1.152,0.00424,0.00045,-0.00349,0.00495,0.10978,-9.81499,37.107,38.127,38.317,43.559,-12.42537,-5.17877,0.56372
1.162,0.00397,0.00071,-0.00349,0.00377,0.02065,-9.83744,37.107,38.038,38.317,43.669,-12.52960,-5.22313,0.57334
1.172,0.00384,0.00079,-0.00331,-0.05159,0.04779,-9.79320,37.107,38.038,38.317,43.780,-12.63318,-5.26944,0.58345
1.182,0.00379,0.00079,-0.00327,-0.01875,0.05045,-9.80071,37.107,38.038,38.317,43.890,-12.73756,-5.31448,0.59337
1.192,0.00370,0.00097,-0.00331,0.02632,0.06248,-9.80298,37.107,38.038,38.317,43.890,-12.84296,-5.35755,0.60292
1.202,0.00357,0.00128,-0.00331,0.04571,0.06530,-9.82865,37.107,38.038,38.317,43.890,-12.94858,-5.39976,0.61237
1.212,0.00357,0.00133,-0.00344,0.01120,0.04379,-9.83110,37.107,38.038,38.317,43.890,-13.05339,-5.44374,0.62229
1.222,0.00353,0.00133,-0.00362,0.03036,0.03014,-9.84662,37.107,38.038,38.317,43.669,-13.15810,-5.48707,0.63214
1.232,0.00362,0.00128,-0.00371,0.01445,0.08651,-9.80437,37.107,38.038,38.317,44.001,-13.26320,-5.53031,0.64205
1.242,0.00348,0.00124,-0.00367,-0.01792,0.04851,-9.80873,37.107,38.038,38.317,43.890,-13.36776,-5.57558,0.65250
1.252,0.00335,0.00128,-0.00367,-0.01943,0.04770,-9.81557,37.107,38.038,38.317,43.669,-13.47236,-5.62100,0.66308
1.262,0.00330,0.00142,-0.00371,-0.01620,0.02862,-9.79455,37.107,38.038,38.329,43.890,-13.57690,-5.66666,0.67378
1.272,0.00304,0.00142,-0.00376,-0.01234,0.02258,-9.77801,37.107,38.038,38.329,43.890,-13.68124,-5.71221,0.68454
1.282,0.00313,0.00128,-0.00371,-0.02841,0.09475,-9.83355,37.107,38.038,38.329,43.780,-13.78562,-5.75721,0.69525
1.292,0.00317,0.00119,-0.00371,-0.02502,0.05767,-9.79956,37.107,38.038,38.329,44.001,-13.88999,-5.80278,0.70618
1.302,0.00317,0.00124,-0.00385,-0.01630,0.04467,-9.81635,37.107,38.038,38.329,43.890,-13.99450,-5.84829,0.71717
1.312,0.00317,0.00137,-0.00389,0.02026,0.08048,-9.79144,37.120,38.038,38.329,43.890,-14.09977,-5.89190,0.72778
1.322,0.00308,0.00168,-0.00380,-0.00038,0.07665,-9.83293,37.120,38.038,38.329,43.890,-14.20454,-5.93633,0.73867
1.332,0.00312,0.00204,-0.00380,0.00822,0.06793,-9.83244,37.120,38.038,38.329,44.001,-14.30926,-5.98056,0.74959
1.342,0.00330,0.00191,-0.00376,-0.00361,0.05589,-9.83283,37.120,38.038,38.329,43.890,-14.41362,-6.02541,0.76075
1.352,0.00353,0.00177,-0.00367,-0.02570,0.05265,-9.80798,37.120,38.038,38.329,43.890,-14.51789,-6.07128,0.77223
1.362,0.00348,0.00173,-0.00358,-0.00962,0.03743,-9.82271,37.120,38.046,38.329,43.890,-14.62230,-6.11683,0.78371
1.372,0.00353,0.00164,-0.00367,0.00042,0.00493,-9.82209,37.120,38.046,38.329,43.780,-14.72668,-6.16255,0.79532
1.382,0.00379,0.00159,-0.00380,0.03515,0.06718,-9.80297,37.120,38.046,38.329,43.890,-14.83211,-6.20619,0.80647
1.392,0.00384,0.00182,-0.00380,-0.01935,0.06734,-9.79718,37.120,38.046,38.329,43.890,-14.93680,-6.25189,0.81825
1.402,0.00410,0.00226,-0.00371,0.01140,0.01169,-9.78831,37.120,38.046,38.329,43.890,-15.04154,-6.29730,0.83000
1.412,0.00397,0.00244,-0.00380,-0.03444,0.00954,-9.81383,37.120,38.046,38.329,43.669,-15.14565,-6.34449,0.84232
1.422,0.00393,0.00244,-0.00389,-0.01035,-0.00170,-9.81648,37.120,38.046,38.329,43.890,-15.25009,-6.39105,0.85455
1.432,0.00384,0.00244,-0.00394,-0.02173,0.04272,-9.80631,37.120,38.046,38.329,43.890,-15.35479,-6.43749,0.86684
1.442,0.00379,0.00240,-0.00389,0.01931,0.05902,-9.78008,37.120,38.046,38.329,43.669,-15.45992,-6.48218,0.87873
1.452,0.00401,0.00231,-0.00394,-0.01312,0.06433,-9.80035,37.120,38.046,38.329,43.780,-15.56472,-6.52802,0.89102
1.462,0.00406,0.00253,-0.00394,0.00873,0.04806,-9.80741,37.120,38.046,38.329,43.669,-15.66987,-6.57345,0.90327
1.472,0.00397,0.00293,-0.00389,-0.04316,-0.01350,-9.78882,37.120,38.046,38.329,43.890,-15.77378,-6.62157,0.91635
1.482,0.00384,0.00258,-0.00389,0.00654,0.03729,-9.80736,37.120,38.046,38.329,43.890,-15.87885,-6.66735,0.92885
1.492,0.00397,0.00240,-0.00389,-0.04198,-0.02112,-9.77309,37.120,38.046,38.329,43.890,-15.98252,-6.71553,0.94211
1.502,0.00401,0.00231,-0.00385,0.00204,0.02648,-9.80933,37.120,38.046,38.329,43.780,-16.08726,-6.76164,0.95486
1.512,0.00410,0.00222,-0.00371,0.00400,0.05911,-9.81513,37.145,38.046,38.329,43.890,-16.19223,-6.80731,0.96758
1.522,0.00410,0.00217,-0.00376,-0.03984,0.03411,-9.79267,37.145,38.046,38.329,44.001,-16.29641,-6.85482,0.98090
1.532,0.00402,0.00231,-0.00380,0.00704,0.04816,-9.77123,37.145,38.046,38.329,43.890,-16.40096,-6.90047,0.99377
1.542,0.00393,0.00217,-0.00385,0.02646,0.05438,-9.81299,37.145,38.046,38.329,43.669,-16.50595,-6.94551,1.00655
1.552,0.00406,0.00168,-0.00385,-0.04297,0.04057,-9.80197,37.145,38.046,38.329,43.780,-16.61004,-6.99313,1.02015
1.562,0.00415,0.00125,-0.00380,-0.01562,0.01783,-9.81178,37.145,38.123,38.329,43.890,-16.71448,-7.04026,1.03369
1.572,0.00433,0.00108,-0.00389,0.00766,0.00432,-9.79753,37.145,38.123,38.329,43.780,-16.81917,-7.08686,1.04716
1.582,0.00429,0.00094,-0.00394,0.03447,0.02535,-9.80034,37.145,38.123,38.329,43.890,-16.92439,-7.13237,1.06040
1.592,0.00406,0.00085,-0.00389,0.03768,0.06248,-9.83992,37.145,38.123,38.329,43.890,-17.02948,-7.17721,1.07352
1.602,0.00389,0.00094,-0.00398,-0.00530,0.05864,-9.80712,37.145,38.123,38.329,43.780,-17.13418,-7.22362,1.08719
1.612,0.00393,0.00099,-0.00407,0.01896,0.05289,-9.77281,37.145,38.123,38.329,43.890,-17.23886,-7.26924,1.10070
1.622,0.00393,0.00068,-0.00416,-0.01244,0.06479,-9.78025,37.145,38.123,38.329,43.780,-17.34303,-7.31570,1.11454
1.632,0.00398,0.00045,-0.00425,0.01382,0.04427,-9.81058,37.145,38.123,38.329,43.890,-17.44762,-7.36173,1.12833
1.642,0.00389,0.00036,-0.00425,0.00932,0.02053,-9.77711,37.145,38.123,38.329,43.890,-17.55183,-7.40816,1.14232
1.652,0.00371,0.00027,-0.00421,-0.00450,0.03855,-9.85044,37.145,38.123,38.329,43.669,-17.65558,-7.45469,1.15643
1.662,0.00375,0.00014,-0.00425,-0.00410,0.03360,-9.83875,37.145,38.123,38.321,43.890,-17.75918,-7.50127,1.17063
1.672,0.00389,0.00001,-0.00416,0.02580,0.08759,-9.74964,37.145,38.123,38.321,43.780,-17.86297,-7.54612,1.18439
1.682,0.00380,-0.00008,-0.00416,-0.02517,0.01421,-9.82627,37.145,38.123,38.321,43.890,-17.96592,-7.59356,1.19901
1.692,0.00393,-0.00008,-0.00425,-0.00883,-0.00014,-9.81367,37.145,38.123,38.321,43.890,-18.06929,-7.64088,1.21367
1.702,0.00384,-0.00008,-0.00421,-0.01217,0.04747,-9.79543,37.145,38.123,38.321,43.890,-18.17303,-7.68785,1.22833
1.712,0.00384,-0.00004,-0.00412,0.01216,0.02008,-9.80805,37.147,38.123,38.321,43.890,-18.27722,-7.73460,1.24298
1.722,0.00393,0.00005,-0.00403,-0.00894,0.03941,-9.80624,37.147,38.123,38.321,43.890,-18.38148,-7.78192,1.25789
1.732,0.00389,0.00014,-0.00389,0.00071,0.06607,-9.78623,37.147,38.123,38.321,43.890,-18.48589,-7.82865,1.27270
1.742,0.00366,0.00054,-0.00376,-0.00401,0.05019,-9.81431,37.147,38.123,38.321,43.669,-18.59025,-7.87582,1.28771
1.752,0.00371,0.00099,-0.00376,-0.01802,0.05429,-9.80113,37.147,38.123,38.321,43.669,-18.69458,-7.92347,1.30298
1.762,0.00353,0.00124,-0.00371,-0.01089,0.06975,-9.79394,37.147,38.035,38.321,43.890,-18.79903,-7.97079,1.31821
1.772,0.00362,0.00133,-0.00371,-0.03861,0.01171,-9.84039,37.147,38.035,38.321,43.890,-18.90257,-8.01954,1.33398
1.782,0.00375,0.00133,-0.00376,-0.00779,0.03639,-9.79576,37.147,38.035,38.321,43.890,-19.00666,-8.06719,1.34949
1.792,0.00375,0.00142,-0.00376,-0.01552,0.03479,-9.78935,37.147,38.035,38.321,43.890,-19.11062,-8.11513,1.36516
1.802,0.00384,0.00173,-0.00371,-0.00841,0.02105,-9.79005,37.147,38.035,38.321,43.669,-19.21457,-8.16309,1.38093
1.812,0.00388,0.00187,-0.00362,0.02884,0.04865,-9.81376,37.147,38.035,38.321,43.890,-19.31920,-8.20975,1.39634
1.822,0.00370,0.00182,-0.00353,-0.01846,0.03121,-9.81668,37.147,38.035,38.321,43.890,-19.42324,-8.25807,1.41240
1.832,0.00370,0.00182,-0.00353,0.01801,-0.00302,-9.84972,37.147,38.035,38.321,43.890,-19.52712,-8.30562,1.42827
1.842,0.00388,0.00178,-0.00367,-0.01071,0.01721,-9.78160,37.147,38.035,38.321,43.890,-19.63067,-8.35378,1.44442
1.852,0.00393,0.00164,-0.00407,0.02997,0.03918,-9.77952,37.147,38.035,38.321,43.780,-19.73469,-8.40054,1.46021
1.862,0.00406,0.00169,-0.00438,0.00456,0.04757,-9.82311,37.147,38.035,38.330,43.780,-19.83851,-8.44802,1.47631
1.872,0.00406,0.00165,-0.00452,0.00291,0.00178,-9.85423,37.147,38.035,38.330,43.890,-19.94172,-8.49597,1.49265
1.882,0.00406,0.00129,-0.00456,0.00573,0.04453,-9.81906,37.147,38.035,38.330,43.780,-20.04534,-8.54350,1.50893
1.892,0.00420,0.00111,-0.00470,-0.04577,0.01255,-9.79258,37.147,38.035,38.330,43.780,-20.14833,-8.59295,1.52596
1.902,0.00406,0.00107,-0.00483,-0.00074,0.06256,-9.79868,37.147,38.035,38.330,43.890,-20.25225,-8.64074,1.54250
1.912,0.00402,0.00116,-0.00483,-0.01652,0.01564,-9.77398,37.092,38.035,38.330,43.559,-20.35556,-8.68947,1.55944
1.922,0.00397,0.00120,-0.00474,-0.04777,0.02171,-9.80149,37.092,38.035,38.330,43.780,-20.45875,-8.73916,1.57680
1.932,0.00402,0.00133,-0.00479,0.01003,-0.00367,-9.78703,37.092,38.035,38.330,43.890,-20.56247,-8.78761,1.59381
1.942,0.00411,0.00147,-0.00488,-0.01036,0.03511,-9.82471,37.092,38.035,38.330,43.890,-20.66610,-8.83625,1.61097
1.952,0.00442,0.00125,-0.00488,-0.01183,0.05284,-9.79868,37.092,38.035,38.330,43.780,-20.76995,-8.88488,1.62820
1.962,0.00442,0.00108,-0.00479,-0.01671,0.03290,-9.77648,37.092,38.002,38.330,43.669,-20.87344,-8.93383,1.64564
1.972,0.00406,0.00099,-0.00456,0.01264,0.04959,-9.82268,37.092,38.002,38.330,43.890,-20.97736,-8.98188,1.66283
1.982,0.00429,0.00094,-0.00430,-0.02432,0.02207,-9.77445,37.092,38.002,38.330,43.890,-21.08055,-9.03121,1.68057
1.992,0.00451,0.00094,-0.00412,-0.01963,0.04338,-9.84691,37.092,38.002,38.330,43.890,-21.18361,-9.08013,1.69823
2.002,0.00460,0.00103,-0.00421,0.00679,0.01580,-9.80484,37.092,38.002,38.330,43.890,-21.28715,-9.12886,1.71591
2.012,0.00469,0.00095,-0.00425,-0.03616,0.04723,-9.78549,37.092,38.002,38.330,44.001,-21.39032,-9.17845,1.73398
2.022,0.00451,0.00072,-0.00421,-0.00532,0.04763,-9.77008,37.092,38.002,38.330,43.780,-21.49360,-9.22719,1.75183
2.032,0.00446,0.00054,-0.00421,0.01847,0.06742,-9.78777,37.092,38.002,38.330,43.890,-21.59728,-9.27520,1.76949
2.042,0.00455,0.00041,-0.00430,0.05261,0.02329,-9.79020,37.092,38.002,38.330,43.890,-21.70120,-9.32287,1.78712
2.052,0.00469,0.00028,-0.00443,-0.00331,0.06052,-9.82522,37.092,38.002,38.330,43.780,-21.80473,-9.37170,1.80524
2.062,0.00442,0.00023,-0.00452,0.00208,0.03672,-9.84598,37.092,38.002,38.324,43.890,-21.90792,-9.42060,1.82348
2.072,0.00429,0.00041,-0.00456,0.02318,0.03100,-9.79439,37.092,38.002,38.324,43.780,-22.01148,-9.46917,1.84168
2.082,0.00402,0.00059,-0.00479,0.01384,0.03018,-9.77754,37.092,38.002,38.324,43.890,-22.11481,-9.51800,1.86006
2.092,0.00411,0.00063,-0.00492,0.01486,0.02657,-9.82657,37.092,38.002,38.324,43.669,-22.21818,-9.56695,1.87856
2.102,0.00429,0.00063,-0.00510,0.01670,0.05777,-9.79858,37.092,38.002,38.324,44.001,-22.32189,-9.61570,1.89708
2.112,0.00402,0.00068,-0.00510,0.01724,0.05538,-9.82832,37.084,38.002,38.324,43.890,-22.42554,-9.66453,1.91570
2.122,0.00380,0.00068,-0.00492,-0.02883,0.02267,-9.80784,37.084,38.002,38.324,43.890,-22.52883,-9.71506,1.93505
2.132,0.00366,0.00090,-0.00470,0.00408,0.02642,-9.83425,37.084,38.002,38.324,43.780,-22.63231,-9.76472,1.95416
2.142,0.00353,0.00094,-0.00452,0.00102,0.03731,-9.77924,37.084,38.002,38.324,43.890,-22.73566,-9.81436,1.97333
2.152,0.00357,0.00076,-0.00438,-0.02179,0.01622,-9.81019,37.084,38.002,38.324,43.890,-22.83891,-9.86498,1.99296
2.162,0.00366,0.00072,-0.00434,-0.02054,0.03929,-9.80427,37.084,38.005,38.324,43.780,-22.94246,-9.91550,2.01264
2.172,0.00357,0.00067,-0.00425,-0.04779,0.03085,-9.82284,37.084,38.005,38.324,43.890,-23.04564,-9.96686,2.03272
2.182,0.00344,0.00076,-0.00420,-0.00950,0.02745,-9.82346,37.084,38.005,38.324,43.890,-23.14915,-10.01736,2.05256
2.192,0.00344,0.00094,-0.00420,-0.01428,0.03473,-9.81026,37.084,38.005,38.324,43.890,-23.25278,-10.06806,2.07257
2.202,0.00371,0.00103,-0.00412,-0.00642,0.01723,-9.79284,37.084,38.005,38.324,43.780,-23.35640,-10.11882,2.09268
2.212,0.00370,0.00098,-0.00380,0.00119,0.03984,-9.82710,37.084,38.005,38.324,43.780,-23.46005,-10.16918,2.11271
2.222,0.00366,0.00090,-0.00367,-0.01744,0.04159,-9.81352,37.084,38.005,38.324,43.890,-23.56362,-10.22011,2.13304
2.232,0.00353,0.00089,-0.00362,0.00003,0.04249,-9.83596,37.084,38.005,38.324,43.890,-23.66712,-10.27058,2.15328
2.242,0.00362,0.00094,-0.00371,0.00784,0.05841,-9.80827,37.084,38.005,38.324,43.890,-23.77095,-10.32088,2.17354
2.252,0.00362,0.00094,-0.00380,0.01609,0.08037,-9.80956,37.084,38.005,38.324,43.890,-23.87507,-10.37092,2.19377
2.262,0.00362,0.00094,-0.00385,0.00883,0.03582,-9.79488,37.084,38.005,38.332,43.890,-23.97892,-10.42163,2.21436
2.272,0.00357,0.00116,-0.00389,-0.03811,-0.00473,-9.82100,37.084,38.005,38.332,43.890,-24.08208,-10.47396,2.23569
2.282,0.00362,0.00121,-0.00389,-0.02549,0.01339,-9.84034,37.084,38.005,38.332,43.890,-24.18512,-10.52573,2.25688
2.292,0.00344,0.00116,-0.00371,0.02240,0.03479,-9.80486,37.084,38.005,38.332,43.780,-24.28891,-10.57633,2.27768
2.302,0.00335,0.00116,-0.00358,-0.01910,0.01133,-9.79206,37.084,38.005,38.332,43.890,-24.39216,-10.62823,2.29908
2.312,0.00344,0.00112,-0.00344,-0.02020,0.08222,-9.82138,37.147,38.005,38.332,43.780,-24.49563,-10.67953,2.32034
2.322,0.00348,0.00103,-0.00322,-0.03515,0.03945,-9.82002,37.147,38.005,38.332,43.890,-24.59879,-10.73169,2.34202
2.332,0.00335,0.00107,-0.00318,0.01455,0.04393,-9.80013,37.147,38.005,38.332,43.890,-24.70253,-10.78277,2.36334
2.342,0.00330,0.00085,-0.00327,-0.05080,0.00984,-9.78294,37.147,38.005,38.332,43.890,-24.80532,-10.83573,2.38553
2.352,0.00335,0.00054,-0.00336,-0.05868,0.04067,-9.83340,37.147,38.005,38.332,43.780,-24.90798,-10.88856,2.40775
2.362,0.00348,0.00038,-0.00340,-0.00869,0.07709,-9.78633,37.147,38.058,38.332,43.890,-25.01119,-10.93995,2.42947
2.372,0.00353,0.00029,-0.00327,-0.05364,0.02626,-9.79591,37.147,38.058,38.332,43.780,-25.11385,-10.99300,2.45196
2.382,0.00344,0.00029,-0.00322,0.01417,0.01319,-9.80841,37.147,38.058,38.332,43.890,-25.21731,-11.04479,2.47400
2.392,0.00366,0.00038,-0.00322,-0.01698,0.00208,-9.81090,37.147,38.058,38.332,43.780,-25.32053,-11.09757,2.49656
2.402,0.00348,0.00074,-0.00313,0.01092,0.04856,-9.77765,37.147,38.058,38.332,43.780,-25.42394,-11.14922,2.51870
2.412,0.00335,0.00105,-0.00309,0.00577,0.02283,-9.76547,37.147,38.058,38.332,43.780,-25.52682,-11.20116,2.54105
2.422,0.00353,0.00101,-0.00313,-0.01126,0.03977,-9.80625,37.147,38.058,38.332,43.890,-25.62987,-11.25355,2.56369
2.432,0.00393,0.00083,-0.00313,-0.03427,0.01693,-9.78371,37.147,38.058,38.332,43.780,-25.73250,-11.30673,2.58675
2.442,0.00393,0.00074,-0.00327,-0.00243,0.03383,-9.77723,37.147,38.058,38.332,43.890,-25.83531,-11.35903,2.60952
2.452,0.00388,0.00079,-0.00340,-0.04306,0.06231,-9.84229,37.147,38.058,38.332,43.780,-25.93762,-11.41197,2.63265
2.462,0.00375,0.00101,-0.00345,-0.03798,0.04940,-9.81968,37.147,38.058,38.329,44.001,-26.04004,-11.46508,2.65594
2.472,0.00366,0.00132,-0.00349,-0.01166,0.03825,-9.79981,37.147,38.058,38.329,43.890,-26.14282,-11.51789,2.67918
2.482,0.00379,0.00132,-0.00349,-0.03039,0.02077,-9.79779,37.147,38.058,38.329,43.890,-26.24549,-11.57145,2.70285
2.492,0.00375,0.00123,-0.00340,-0.03311,0.03482,-9.83446,37.147,38.058,38.329,43.890,-26.34802,-11.62495,2.72656
2.502,0.00375,0.00119,-0.00345,-0.00572,0.01805,-9.77796,37.147,38.058,38.329,43.780,-26.45056,-11.67801,2.75017
2.512,0.00388,0.00110,-0.00353,-0.05687,0.00778,-9.80507,37.150,38.058,38.329,43.890,-26.55283,-11.73255,2.77453
2.522,0.00366,0.00105,-0.00353,-0.02095,0.05489,-9.84215,37.150,38.058,38.329,43.890,-26.65534,-11.78581,2.79840
2.532,0.00402,0.00105,-0.00362,-0.00689,0.04201,-9.84122,37.150,38.058,38.329,43.890,-26.75772,-11.83888,2.82227
2.542,0.00433,0.00115,-0.00371,0.01202,0.07220,-9.83044,37.150,38.058,38.329,43.780,-26.86037,-11.89136,2.84596
2.552,0.00446,0.00124,-0.00380,0.01068,0.04693,-9.80659,37.150,38.058,38.329,43.890,-26.96321,-11.94434,2.86996
2.562,0.00411,0.00138,-0.00394,-0.05134,0.03125,-9.80638,37.150,38.014,38.329,43.780,-27.06566,-11.99908,2.89485
2.572,0.00406,0.00143,-0.00376,-0.04430,0.01947,-9.79342,37.150,38.014,38.329,43.890,-27.16812,-12.05388,2.91985
2.582,0.00424,0.00138,-0.00367,-0.02418,0.02994,-9.83198,37.150,38.014,38.329,43.890,-27.27066,-12.10816,2.94469
2.592,0.00428,0.00143,-0.00363,0.02446,0.02597,-9.81084,37.150,38.014,38.329,43.890,-27.37378,-12.16161,2.96924
2.602,0.00460,0.00183,-0.00363,-0.03100,0.06535,-9.77711,37.150,38.014,38.329,44.001,-27.47630,-12.21591,2.99426
2.612,0.00451,0.00205,-0.00363,-0.00020,0.07909,-9.79153,37.150,38.014,38.329,44.001,-27.57917,-12.26955,3.01907
2.622,0.00442,0.00201,-0.00358,-0.02520,0.07074,-9.79441,37.150,38.014,38.329,43.890,-27.68183,-12.32393,3.04431
2.632,0.00419,0.00196,-0.00349,-0.00962,0.05332,-9.77535,37.150,38.014,38.329,43.780,-27.78433,-12.37811,3.06954
2.642,0.00424,0.00192,-0.00336,-0.01649,0.04976,-9.78461,37.150,38.014,38.329,43.780,-27.88669,-12.43256,3.09498
2.652,0.00433,0.00183,-0.00327,-0.00375,0.07379,-9.75855,37.150,38.014,38.329,43.780,-27.98885,-12.48643,3.12023
2.662,0.00419,0.00187,-0.00318,0.01108,0.01506,-9.81406,37.150,38.014,38.324,43.669,-28.09116,-12.54071,3.14575
2.672,0.00406,0.00187,-0.00313,-0.00534,0.06247,-9.80915,37.150,38.014,38.324,43.890,-28.19372,-12.59518,3.17145
2.682,0.00379,0.00147,-0.00309,-0.04772,0.02091,-9.81073,37.150,38.014,38.324,43.890,-28.29591,-12.65111,3.19793
2.692,0.00393,0.00120,-0.00309,0.00075,0.05577,-9.76808,37.150,38.014,38.324,44.001,-28.39833,-12.70565,3.22385
2.702,0.00397,0.00107,-0.00322,0.01636,0.09149,-9.81323,37.150,38.014,38.324,43.890,-28.50115,-12.75974,3.24963
2.712,0.00379,0.00098,-0.00340,-0.01035,0.01351,-9.85757,37.150,38.014,38.324,44.001,-28.60300,-12.81493,3.27603
2.722,0.00380,0.00085,-0.00344,0.01348,0.04384,-9.82144,37.150,38.014,38.324,43.890,-28.70526,-12.86953,3.30223
2.732,0.00353,0.00085,-0.00335,-0.01592,0.06437,-9.77865,37.150,38.014,38.324,43.890,-28.80723,-12.92464,3.32875
2.742,0.00326,0.00098,-0.00322,-0.01701,0.03054,-9.79054,37.150,38.014,38.324,43.669,-28.90914,-12.98021,3.35558
2.752,0.00322,0.00076,-0.00318,0.01566,0.00565,-9.77338,37.150,38.014,38.324,43.780,-29.01106,-13.03533,3.38230
2.762,0.00344,0.00061,-0.00322,-0.00083,0.03304,-9.78767,37.150,38.041,38.324,43.559,-29.11300,-13.09072,3.40921
2.772,0.00348,0.00057,-0.00331,0.00226,-0.00259,-9.77983,37.150,38.041,38.324,43.780,-29.21476,-13.14642,3.43638
2.782,0.00348,0.00057,-0.00349,0.02576,0.05089,-9.82142,37.150,38.041,38.324,44.001,-29.31700,-13.20135,3.46325
2.792,0.00357,0.00057,-0.00362,-0.04951,0.07272,-9.80578,37.150,38.041,38.324,43.669,-29.41894,-13.25795,3.49103
2.802,0.00348,0.00066,-0.00358,0.01748,0.00926,-9.84898,37.150,38.041,38.324,43.780,-29.52088,-13.31361,3.51843
2.812,0.00362,0.00066,-0.00349,-0.02659,0.05691,-9.79233,37.150,38.041,38.324,44.001,-29.62271,-13.36998,3.54627
2.822,0.00362,0.00052,-0.00327,-0.02521,0.04496,-9.81237,37.150,38.041,38.324,43.780,-29.72469,-13.42663,3.57433
2.832,0.00357,0.00048,-0.00322,-0.02031,0.06033,-9.82529,37.150,38.041,38.324,43.890,-29.82673,-13.48315,3.60241
2.842,0.00362,0.00039,-0.00304,-0.02816,0.03798,-9.82561,37.150,38.041,38.324,43.890,-29.92857,-13.54014,3.63082
2.852,0.00366,0.00030,-0.00291,-0.00436,0.02057,-9.83265,37.150,38.041,38.324,43.780,-30.03044,-13.59684,3.65916
2.862,0.00375,0.00026,-0.00282,0.01167,0.03080,-9.81374,37.150,38.041,38.330,43.890,-30.13263,-13.65333,3.68749
2.872,0.00393,0.00030,-0.00286,-0.00444,0.01417,-9.79522,37.150,38.041,38.330,43.890,-30.23468,-13.71046,3.71624
2.882,0.00397,0.00043,-0.00286,-0.00093,0.03502,-9.76918,37.150,38.041,38.330,43.890,-30.33652,-13.76730,3.74492
2.892,0.00393,0.00043,-0.00286,-0.00123,0.03609,-9.79251,37.150,38.041,38.330,43.890,-30.43842,-13.82430,3.77377
2.902,0.00393,0.00048,-0.00286,-0.01515,0.03670,-9.79258,37.150,38.041,38.330,43.780,-30.54024,-13.88174,3.80292
2.912,0.00388,0.00048,-0.00273,0.01297,0.07351,-9.78420,37.129,38.041,38.330,43.890,-30.64236,-13.93839,3.83177
2.922,0.00384,0.00052,-0.00269,0.02757,0.06052,-9.81905,37.129,38.041,38.330,43.669,-30.74461,-13.99503,3.86069
2.932,0.00402,0.00061,-0.00273,0.01265,0.03590,-9.78481,37.129,38.041,38.330,43.890,-30.84657,-14.05225,3.89000
2.942,0.00415,0.00075,-0.00286,-0.02573,0.08187,-9.79125,37.129,38.041,38.330,43.890,-30.94837,-14.11002,3.91968
2.952,0.00397,0.00079,-0.00313,-0.02142,0.08187,-9.80651,37.129,38.041,38.330,43.890,-31.05044,-14.16797,3.94954
2.962,0.00388,0.00083,-0.00313,-0.01861,0.01239,-9.82061,37.129,38.060,38.330,43.890,-31.15227,-14.22657,3.97982
2.972,0.00384,0.00096,-0.00318,0.00032,0.04067,-9.80781,37.129,38.060,38.330,43.890,-31.25450,-14.28477,4.00999
2.982,0.00362,0.00110,-0.00331,0.00745,0.04852,-9.77806,37.129,38.060,38.330,43.669,-31.35657,-14.34277,4.04014
2.992,0.00375,0.00114,-0.00349,-0.00542,0.05684,-9.77254,37.129,38.060,38.330,43.890,-31.45827,-14.40094,4.07047
3.002,0.00379,0.00105,-0.00362,-0.01371,0.01064,-9.78680,37.129,38.060,38.330,43.890,-31.55971,-14.45976,4.10122
3.012,0.00393,0.00083,-0.00376,0.00569,0.04152,-9.79975,37.129,38.060,38.330,43.890,-31.66154,-14.51816,4.13185
3.022,0.00375,0.00070,-0.00385,-0.03005,0.02005,-9.78572,37.129,38.060,38.330,43.890,-31.76292,-14.57755,4.16309
3.032,0.00357,0.00061,-0.00398,-0.04133,0.00751,-9.82309,37.129,38.060,38.330,43.890,-31.86415,-14.63740,4.19466
3.042,0.00380,0.00052,-0.00407,-0.07399,0.03764,-9.76590,37.129,38.060,38.330,43.890,-31.96488,-14.69759,4.22652
3.052,0.00353,0.00047,-0.00421,-0.01780,0.03473,-9.79941,37.129,38.060,38.330,43.890,-32.06621,-14.75694,4.25800
3.062,0.00349,0.00056,-0.00434,0.00608,0.03848,-9.79209,37.129,38.060,38.336,43.669,-32.16779,-14.81598,4.28942
3.072,0.00340,0.00047,-0.00430,-0.05071,0.01889,-9.83003,37.129,38.060,38.336,43.890,-32.26875,-14.87636,4.32163
3.082,0.00358,0.00016,-0.00416,0.03252,-0.00196,-9.81187,37.129,38.060,38.336,43.890,-32.37048,-14.93553,4.35329
3.092,0.00366,0.00003,-0.00421,-0.01524,0.04362,-9.78980,37.129,38.060,38.336,43.890,-32.47192,-14.99539,4.38541
3.102,0.00371,-0.00010,-0.00430,-0.03403,0.07173,-9.81013,37.129,38.060,38.336,43.890,-32.57346,-15.05563,4.41783
3.112,0.00384,-0.00015,-0.00430,0.03214,0.01849,-9.77820,37.158,38.060,38.336,43.890,-32.67513,-15.11503,4.44988
3.122,0.00376,-0.00010,-0.00443,-0.01158,0.01469,-9.84472,37.158,38.060,38.336,44.001,-32.77612,-15.17527,4.48247
3.132,0.00402,-0.00010,-0.00443,-0.01400,0.06212,-9.76979,37.158,38.060,38.336,43.890,-32.87701,-15.23521,4.51499
3.142,0.00402,-0.00015,-0.00443,-0.01065,0.01412,-9.78761,37.158,38.060,38.336,43.780,-32.97781,-15.29563,4.54787
3.152,0.00433,-0.00015,-0.00439,-0.03050,0.00838,-9.82908,37.158,38.060,38.336,43.890,-33.07841,-15.35662,4.58115
3.162,0.00442,-0.00009,-0.00425,-0.03569,0.03804,-9.78061,37.158,38.021,38.336,43.780,-33.17900,-15.41759,4.61449
3.172,0.00416,0.00005,-0.00412,-0.01530,0.04861,-9.78942,37.158,38.021,38.336,43.669,-33.27984,-15.47828,4.64778
3.182,0.00424,0.00009,-0.00389,-0.02634,0.03390,-9.78658,37.158,38.021,38.336,43.669,-33.38054,-15.53946,4.68141
3.192,0.00402,0.00009,-0.00376,-0.01563,0.08080,-9.80125,37.158,38.021,38.336,43.890,-33.48168,-15.60034,4.71498
3.202,0.00398,0.00058,-0.00389,-0.01352,0.02981,-9.79374,37.158,38.021,38.336,43.780,-33.58271,-15.66177,4.74893
3.212,0.00348,0.00111,-0.00407,0.00665,0.05119,-9.78049,37.158,38.021,38.336,43.890,-33.68383,-15.72274,4.78273
3.222,0.00353,0.00125,-0.00421,-0.04109,0.04557,-9.80359,37.158,38.021,38.336,43.890,-33.78475,-15.78494,4.81728
3.232,0.00362,0.00138,-0.00412,0.00763,0.03355,-9.77959,37.158,38.021,38.336,43.780,-33.88583,-15.84635,4.85150
3.242,0.00380,0.00147,-0.00407,0.02689,0.04560,-9.80048,37.158,38.021,38.336,43.669,-33.98723,-15.90755,4.88568
3.252,0.00366,0.00156,-0.00389,0.01596,0.05470,-9.79816,37.158,38.021,38.336,43.890,-34.08865,-15.96910,4.92015
3.262,0.00339,0.00191,-0.00376,-0.00300,0.05716,-9.79947,37.158,38.021,38.330,43.780,-34.18999,-16.03121,4.95501
3.272,0.00330,0.00236,-0.00362,-0.01894,0.03964,-9.81754,37.158,38.021,38.330,43.780,-34.29111,-16.09390,4.99030
3.282,0.00312,0.00222,-0.00358,0.04714,0.04791,-9.75256,37.158,38.021,38.330,43.890,-34.39223,-16.15510,5.02482
3.292,0.00317,0.00205,-0.00367,-0.00181,0.03061,-9.82344,37.158,38.021,38.330,43.890,-34.49292,-16.21753,5.06014
3.302,0.00321,0.00187,-0.00371,-0.03573,0.04415,-9.78909,37.158,38.021,38.330,43.890,-34.59338,-16.28067,5.09595
3.312,0.00335,0.00178,-0.00376,0.06932,0.01923,-9.80056,37.157,38.021,38.330,43.890,-34.69474,-16.34227,5.13098
3.322,0.00335,0.00174,-0.00385,0.00078,0.05233,-9.76445,37.157,38.021,38.330,43.780,-34.79531,-16.40486,5.16666
3.332,0.00326,0.00165,-0.00385,-0.01001,0.02192,-9.86967,37.157,38.021,38.330,43.780,-34.89510,-16.46770,5.20258
3.342,0.00348,0.00133,-0.00367,0.03234,0.03575,-9.78111,37.157,38.021,38.330,43.780,-34.99530,-16.52983,5.23819
3.352,0.00335,0.00116,-0.00344,-0.02598,0.07567,-9.80690,37.157,38.021,38.330,43.780,-35.09552,-16.59312,5.27455
3.362,0.00326,0.00103,-0.00340,-0.01363,0.01172,-9.80812,37.157,38.110,38.330,43.890,-35.19590,-16.65702,5.31134
3.372,0.00290,0.00094,-0.00349,-0.01150,0.08855,-9.79525,37.157,38.110,38.330,43.780,-35.29660,-16.72052,5.34799
3.382,0.00308,0.00090,-0.00349,-0.00551,-0.01778,-9.81999,37.157,38.110,38.330,43.780,-35.39704,-16.78490,5.38525
3.392,0.00313,0.00099,-0.00358,-0.02246,0.02480,-9.76641,37.157,38.110,38.330,43.890,-35.49713,-16.84924,5.42258
3.402,0.00322,0.00103,-0.00371,0.01369,0.05957,-9.82353,37.157,38.110,38.330,43.890,-35.59762,-16.91284,5.45957
3.412,0.00313,0.00085,-0.00376,-0.01974,0.04536,-9.82762,37.157,38.110,38.330,43.669,-35.69778,-16.97732,5.49717
3.422,0.00304,0.00085,-0.00371,0.04893,0.03672,-9.77983,37.157,38.110,38.330,43.890,-35.79831,-17.04070,5.53421
3.432,0.00290,0.00090,-0.00371,-0.00665,0.04516,-9.81631,37.157,38.110,38.330,43.890,-35.89857,-17.10531,5.57206
3.442,0.00286,0.00099,-0.00371,-0.00286,0.04641,-9.80142,37.157,38.110,38.330,43.890,-35.99902,-17.17012,5.61012
3.452,0.00299,0.00108,-0.00371,0.01682,0.05844,-9.83035,37.157,38.110,38.330,44.001,-36.09954,-17.23460,5.64808
3.462,0.00308,0.00130,-0.00371,-0.01871,0.00980,-9.78963,37.157,38.110,38.334,43.890,-36.19960,-17.30026,5.68682
3.472,0.00308,0.00148,-0.00380,-0.02171,0.00286,-9.79042,37.157,38.110,38.334,43.669,-36.29959,-17.36622,5.72583
3.482,0.00308,0.00126,-0.00385,-0.01774,0.08472,-9.77032,37.157,38.110,38.334,43.890,-36.39959,-17.43148,5.76453
3.492,0.00290,0.00103,-0.00389,0.00536,0.02627,-9.76952,37.157,38.110,38.334,43.669,-36.49934,-17.49680,5.80335
3.502,0.00335,0.00086,-0.00380,0.02500,0.03186,-9.77187,37.157,38.110,38.334,43.780,-36.59909,-17.56179,5.84207
3.512,0.00353,0.00072,-0.00389,-0.04242,0.04806,-9.86111,37.141,38.110,38.334,44.111,-36.69797,-17.62780,5.88150
3.522,0.00371,0.00063,-0.00394,-0.01231,0.04948,-9.76770,37.141,38.110,38.334,43.780,-36.79696,-17.69337,5.92074
3.532,0.00357,0.00090,-0.00389,-0.04810,0.04060,-9.77585,37.141,38.110,38.334,43.890,-36.89563,-17.75985,5.96063
3.542,0.00397,0.00117,-0.00398,0.03099,0.03254,-9.81849,37.141,38.110,38.334,43.890,-36.99514,-17.82533,5.99999
3.552,0.00406,0.00099,-0.00403,-0.03247,0.06831,-9.80448,37.141,38.110,38.334,43.780,-37.09460,-17.89209,6.04025
3.562,0.00406,0.00089,-0.00412,-0.00696,0.04358,-9.83037,37.141,38.028,38.334,43.780,-37.19411,-17.95875,6.08051
3.572,0.00420,0.00067,-0.00425,-0.04372,0.04815,-9.82774,37.141,38.028,38.334,43.559,-37.29338,-18.02623,6.12137
3.582,0.00424,0.00058,-0.00425,-0.01174,0.04592,-9.80145,37.141,38.028,38.334,43.669,-37.39307,-18.09348,6.16219
3.592,0.00411,0.00067,-0.00425,-0.05245,0.05165,-9.78277,37.141,38.028,38.334,43.669,-37.49237,-18.16157,6.20360
3.602,0.00415,0.00080,-0.00430,-0.08108,0.05972,-9.79620,37.141,38.028,38.334,43.890,-37.59156,-18.23039,6.24555
3.612,0.00415,0.00067,-0.00434,-0.02710,0.03730,-9.80027,37.141,38.028,38.334,43.890,-37.69122,-18.29869,6.28730
3.622,0.00433,0.00049,-0.00434,0.00913,0.05908,-9.84164,37.141,38.028,38.334,43.890,-37.79094,-18.36621,6.32865
3.632,0.00424,0.00053,-0.00439,-0.03016,0.07443,-9.81978,37.141,38.028,38.334,43.780,-37.89044,-18.43454,6.37059
3.642,0.00406,0.00058,-0.00425,-0.01051,0.03789,-9.79618,37.141,38.028,38.334,43.890,-37.99005,-18.50305,6.41274
3.652,0.00366,0.00062,-0.00412,0.03431,0.04943,-9.82982,37.141,38.028,38.334,43.890,-38.08989,-18.57080,6.45450
3.662,0.00366,0.00062,-0.00421,-0.00174,0.04987,-9.80304,37.141,38.028,38.333,43.890,-38.18964,-18.63951,6.49695
3.672,0.00326,0.00084,-0.00420,0.01509,0.01080,-9.83694,37.141,38.028,38.333,43.890,-38.28913,-18.70825,6.53952
3.682,0.00322,0.00102,-0.00412,0.00169,0.02531,-9.81375,37.141,38.028,38.333,43.890,-38.38869,-18.77742,6.58244
3.692,0.00339,0.00115,-0.00407,0.03462,0.02029,-9.82243,37.141,38.028,38.333,43.780,-38.48843,-18.84623,6.62524
3.702,0.00348,0.00129,-0.00394,-0.07785,0.01029,-9.78266,37.141,38.028,38.333,43.890,-38.58715,-18.91724,6.66949
3.712,0.00353,0.00124,-0.00403,-0.00088,0.04715,-9.81549,37.147,38.028,38.333,43.890,-38.68663,-18.98689,6.71299
3.722,0.00371,0.00116,-0.00412,-0.01800,0.03944,-9.76566,37.147,38.028,38.333,43.669,-38.78559,-19.05685,6.75679
3.732,0.00388,0.00129,-0.00416,0.04130,0.07336,-9.81383,37.147,38.028,38.333,43.890,-38.88524,-19.12584,6.80007
3.742,0.00366,0.00142,-0.00416,0.00236,0.01178,-9.84504,37.147,38.028,38.333,44.001,-38.98411,-19.19597,6.84416
3.752,0.00357,0.00147,-0.00425,-0.02565,0.04310,-9.79346,37.147,38.028,38.333,43.890,-39.08292,-19.26665,6.88868
3.762,0.00326,0.00143,-0.00425,-0.00526,0.02713,-9.82063,37.147,38.117,38.333,43.890,-39.18188,-19.33735,6.93332
3.772,0.00299,0.00148,-0.00443,0.00221,0.04605,-9.81104,37.147,38.117,38.333,43.669,-39.28112,-19.40812,6.97809
3.782,0.00299,0.00148,-0.00461,0.02175,-0.00402,-9.81713,37.147,38.117,38.333,43.780,-39.38036,-19.47915,7.02312
3.792,0.00317,0.00157,-0.00461,-0.02734,0.05916,-9.80441,37.147,38.117,38.333,43.890,-39.47958,-19.55093,7.06873
3.802,0.00326,0.00161,-0.00452,-0.03902,0.04168,-9.82688,37.147,38.117,38.333,44.001,-39.57848,-19.62316,7.11471
3.812,0.00331,0.00121,-0.00456,-0.02014,0.04232,-9.81515,37.147,38.117,38.333,43.890,-39.67758,-19.69532,7.16076
3.822,0.00322,0.00090,-0.00461,0.01940,0.05932,-9.80300,37.147,38.117,38.333,43.669,-39.77709,-19.76695,7.20656
3.832,0.00313,0.00077,-0.00474,0.00348,0.02240,-9.77312,37.147,38.117,38.333,43.890,-39.87604,-19.83912,7.25280
3.842,0.00304,0.00081,-0.00456,-0.00881,0.05292,-9.78339,37.147,38.117,38.333,43.890,-39.97483,-19.91142,7.29922
3.852,0.00277,0.00085,-0.00434,-0.01771,0.05626,-9.78907,37.147,38.117,38.333,43.890,-40.07352,-19.98406,7.34595
3.862,0.00264,0.00103,-0.00425,0.05175,0.03552,-9.80354,37.147,38.117,38.337,44.001,-40.17280,-20.05597,7.39231
3.872,0.00286,0.00117,-0.00429,0.00553,0.03108,-9.82422,37.147,38.117,38.337,43.890,-40.27164,-20.12890,7.43941
3.882,0.00295,0.00090,-0.00434,0.03018,0.02267,-9.78225,37.147,38.117,38.337,43.890,-40.37048,-20.20158,7.48646
3.892,0.00300,0.00059,-0.00438,-0.01341,0.06007,-9.81199,37.147,38.117,38.337,43.890,-40.46920,-20.27508,7.53414
3.902,0.00300,0.00036,-0.00425,-0.00851,0.03520,-9.80460,37.147,38.117,38.337,43.890,-40.56799,-20.34901,7.58219
3.912,0.00313,0.00014,-0.00407,-0.02409,0.02599,-9.74873,37.162,38.117,38.337,44.001,-40.66602,-20.42305,7.63041
3.922,0.00318,-0.00008,-0.00403,-0.04513,-0.00399,-9.80697,37.162,38.117,38.337,44.001,-40.76401,-20.49810,7.67939
3.932,0.00322,-0.00026,-0.00412,-0.03850,0.01687,-9.78895,37.162,38.117,38.337,43.780,-40.86207,-20.57309,7.72842
3.942,0.00313,-0.00031,-0.00407,-0.01570,0.05812,-9.81320,37.162,38.117,38.337,44.001,-40.96050,-20.64771,7.77731
3.952,0.00322,-0.00035,-0.00412,-0.04645,0.04699,-9.82051,37.162,38.117,38.337,43.890,-41.05864,-20.72317,7.82685
3.962,0.00295,-0.00028,-0.00412,0.01560,0.00721,-9.76454,37.162,38.039,38.337,43.780,-41.15670,-20.79780,7.87594
3.972,0.00304,-0.00019,-0.00416,0.00164,0.05417,-9.79018,37.162,38.039,38.337,43.890,-41.25481,-20.87260,7.92524
3.982,0.00322,-0.00010,-0.00412,0.01442,0.06000,-9.81388,37.162,38.039,38.337,43.890,-41.35314,-20.94749,7.97469
3.992,0.00353,-0.00005,-0.00412,-0.03063,0.01229,-9.80940,37.162,38.039,38.337,43.890,-41.45115,-21.02388,8.02523
4.002,0.00371,0.00022,-0.00407,-0.03109,0.00930,-9.78366,37.162,38.039,38.337,43.780,-41.54896,-21.10042,8.07597
4.012,0.00344,0.00062,-0.00389,0.01045,0.03311,-9.80571,37.162,38.039,38.337,43.780,-41.64730,-21.17647,8.12648
4.022,0.00366,0.00088,-0.00376,0.00652,0.04605,-9.82671,37.162,38.039,38.337,43.890,-41.74550,-21.25266,8.17717
4.032,0.00380,0.00097,-0.00376,0.00656,0.03765,-9.81259,37.162,38.039,38.337,43.780,-41.84377,-21.32923,8.22821
4.042,0.00397,0.00120,-0.00389,-0.00900,0.04174,-9.79740,37.162,38.039,38.337,43.890,-41.94191,-21.40632,8.27971
4.052,0.00397,0.00146,-0.00389,-0.02699,-0.00605,-9.79642,37.162,38.039,38.337,43.780,-42.03973,-21.48430,8.33188
4.062,0.00397,0.00195,-0.00385,0.03139,0.02112,-9.79068,37.162,38.039,38.338,43.669,-42.13798,-21.56130,8.38350
4.072,0.00406,0.00236,-0.00394,-0.04024,-0.02847,-9.79838,37.162,38.039,38.338,43.890,-42.23553,-21.64016,8.43647
4.082,0.00411,0.00222,-0.00394,-0.01567,0.02395,-9.81704,37.162,38.039,38.338,43.890,-42.33340,-21.71848,8.48917
4.092,0.00442,0.00209,-0.00385,0.00827,0.05420,-9.80584,37.162,38.039,38.338,43.890,-42.43164,-21.79655,8.54180
4.102,0.00446,0.00196,-0.00380,-0.04480,0.03971,-9.82408,37.162,38.039,38.338,43.890,-42.52927,-21.87577,8.59531
4.112,0.00460,0.00191,-0.00389,0.00653,0.03007,-9.78400,37.156,38.039,38.338,43.890,-42.62703,-21.95431,8.64846
4.122,0.00455,0.00191,-0.00389,-0.03434,0.03714,-9.82443,37.156,38.039,38.338,43.890,-42.72441,-22.03370,8.70228
4.132,0.00460,0.00196,-0.00389,-0.02177,0.02267,-9.83274,37.156,38.039,38.338,44.111,-42.82161,-22.11308,8.75621
4.142,0.00504,0.00160,-0.00390,0.03088,-0.00038,-9.79379,37.156,38.039,38.338,43.890,-42.91914,-22.19203,8.80993
4.152,0.00500,0.00124,-0.00394,-0.00552,0.01030,-9.80245,37.156,38.039,38.338,43.890,-43.01654,-22.27190,8.86439
4.162,0.00500,0.00105,-0.00385,-0.04307,0.02627,-9.83004,37.156,38.088,38.338,43.669,-43.11351,-22.35243,8.91938
4.172,0.00487,0.00082,-0.00367,-0.03615,0.05330,-9.80562,37.156,38.088,38.338,43.890,-43.21075,-22.43308,8.97457
4.182,0.00451,0.00060,-0.00354,-0.01015,0.04438,-9.80747,37.156,38.088,38.338,43.890,-43.30824,-22.51371,9.02984
4.192,0.00442,0.00046,-0.00345,-0.03376,0.01190,-9.79775,37.156,38.088,38.338,43.890,-43.40544,-22.59526,9.08584
4.202,0.00420,0.00037,-0.00336,0.00672,0.02346,-9.81010,37.156,38.088,38.338,43.890,-43.50299,-22.67635,9.14163
4.212,0.00433,0.00024,-0.00336,-0.01128,0.03978,-9.80222,37.156,38.088,38.338,43.890,-43.60044,-22.75795,9.19788
4.222,0.00424,0.00011,-0.00345,0.02658,0.06448,-9.77806,37.156,38.088,38.338,43.890,-43.69794,-22.83877,9.25368
4.232,0.00420,0.00002,-0.00367,0.01279,0.05929,-9.79137,37.156,38.088,38.338,43.890,-43.79522,-22.92010,9.30993
4.242,0.00407,-0.00007,-0.00372,-0.00366,0.02292,-9.82140,37.156,38.088,38.338,44.001,-43.89218,-23.00220,9.36683
4.252,0.00402,-0.00012,-0.00367,-0.01713,0.04128,-9.79221,37.156,38.088,38.338,43.890,-43.98900,-23.08464,9.42405
4.262,0.00393,-0.00012,-0.00363,-0.07545,0.04060,-9.79527,37.156,38.088,38.330,43.780,-44.08537,-23.16838,9.48227
4.272,0.00375,-0.00012,-0.00367,0.02535,-0.01814,-9.80659,37.156,38.088,38.330,44.001,-44.18241,-23.25121,9.53998
4.282,0.00380,-0.00012,-0.00362,0.00761,0.03737,-9.78524,37.156,38.088,38.330,43.890,-44.27928,-23.33413,9.59783
4.292,0.00393,-0.00007,-0.00367,-0.02103,0.05039,-9.81117,37.156,38.088,38.330,43.890,-44.37603,-23.41781,9.65633
4.302,0.00393,0.00006,-0.00385,0.01450,0.00906,-9.78185,37.156,38.088,38.330,43.890,-44.47266,-23.50129,9.71477
4.312,0.00398,0.00011,-0.00403,0.01476,0.06079,-9.80705,37.160,38.088,38.330,43.890,-44.56956,-23.58483,9.77338
4.322,0.00407,-0.00002,-0.00403,-0.01224,0.05437,-9.79748,37.160,38.088,38.330,43.890,-44.66622,-23.66918,9.83264
4.332,0.00429,0.00007,-0.00407,0.03784,0.04600,-9.83340,37.160,38.088,38.330,43.890,-44.76294,-23.75284,9.89152
4.342,0.00424,0.00029,-0.00394,-0.00420,0.06440,-9.80997,37.160,38.088,38.330,44.001,-44.85949,-23.83749,9.95120
4.352,0.00398,0.00042,-0.00380,0.03951,0.05878,-9.80612,37.160,38.088,38.330,43.780,-44.95642,-23.92184,10.01078
4.362,0.00375,0.00057,-0.00358,-0.05303,0.04617,-9.81410,37.160,38.047,38.330,43.890,-45.05259,-24.00815,10.07182
4.372,0.00393,0.00066,-0.00349,-0.01963,0.02931,-9.80744,37.160,38.047,38.330,43.890,-45.14901,-24.09440,10.13293
4.382,0.00371,0.00075,-0.00358,0.01913,0.03147,-9.75179,37.160,38.047,38.330,43.890,-45.24506,-24.17974,10.19349
4.392,0.00348,0.00097,-0.00362,-0.01187,0.03545,-9.83276,37.160,38.047,38.330,43.890,-45.34070,-24.26576,10.25463
4.402,0.00339,0.00124,-0.00362,0.04156,0.01468,-9.80307,37.160,38.047,38.330,43.780,-45.43679,-24.35149,10.31568
4.412,0.00335,0.00128,-0.00371,0.01191,0.04726,-9.82629,37.160,38.047,38.330,44.001,-45.53266,-24.43774,10.37718
4.422,0.00330,0.00128,-0.00376,-0.05303,0.01963,-9.83165,37.160,38.047,38.330,43.669,-45.62777,-24.52545,10.43984
4.432,0.00330,0.00119,-0.00367,-0.04197,0.04679,-9.78189,37.160,38.047,38.330,43.890,-45.72290,-24.61302,10.50249
4.442,0.00344,0.00119,-0.00349,0.03588,0.03917,-9.80564,37.160,38.047,38.330,43.890,-45.81877,-24.69987,10.56473
4.452,0.00344,0.00128,-0.00340,-0.02683,0.04653,-9.79750,37.160,38.047,38.330,43.780,-45.91420,-24.78808,10.62805
4.462,0.00344,0.00137,-0.00327,-0.04526,0.06668,-9.78925,37.160,38.047,38.340,43.780,-46.00945,-24.87672,10.69177
4.472,0.00344,0.00141,-0.00327,0.02224,0.05202,-9.81541,37.160,38.047,38.340,43.890,-46.10517,-24.96474,10.75515
4.482,0.00370,0.00137,-0.00336,-0.00918,0.01420,-9.77112,37.160,38.047,38.340,43.780,-46.20021,-25.05357,10.81922
4.492,0.00397,0.00137,-0.00345,-0.00136,0.04874,-9.79660,37.160,38.047,38.340,43.890,-46.29544,-25.14245,10.88343
4.502,0.00384,0.00133,-0.00354,0.03048,0.06563,-9.79173,37.160,38.047,38.340,43.890,-46.39090,-25.23101,10.94752
4.512,0.00402,0.00124,-0.00349,0.00432,0.05803,-9.79502,37.092,38.047,38.340,43.890,-46.48617,-25.32044,11.01232
4.522,0.00406,0.00115,-0.00345,-0.06046,0.01277,-9.79064,37.092,38.047,38.340,43.890,-46.58069,-25.41154,11.07845
4.532,0.00415,0.00119,-0.00340,0.01345,0.00820,-9.80557,37.092,38.047,38.340,43.890,-46.67588,-25.50193,11.14417
4.542,0.00402,0.00101,-0.00336,-0.00257,0.01652,-9.78719,37.092,38.047,38.340,43.890,-46.77084,-25.59278,11.21032
4.552,0.00406,0.00084,-0.00345,0.00509,0.01857,-9.77631,37.092,38.047,38.340,44.001,-46.86556,-25.68359,11.27655
4.562,0.00406,0.00075,-0.00349,0.03245,0.05954,-9.78244,37.092,38.026,38.340,44.001,-46.96045,-25.77391,11.34252
4.572,0.00397,0.00067,-0.00354,0.02191,0.01403,-9.81320,37.092,38.026,38.340,43.780,-47.05520,-25.86518,11.40930
4.582,0.00411,0.00067,-0.00363,0.04499,0.01400,-9.78858,37.092,38.026,38.340,44.111,-47.15002,-25.95637,11.47612
4.592,0.00397,0.00080,-0.00380,0.00600,0.02265,-9.82176,37.092,38.026,38.340,43.890,-47.24455,-26.04851,11.54372
4.602,0.00393,0.00062,-0.00389,-0.02654,0.03337,-9.83000,37.092,38.026,38.340,43.780,-47.33868,-26.14133,11.61195
4.612,0.00384,0.00040,-0.00389,-0.00030,0.02533,-9.79969,37.092,38.026,38.340,43.890,-47.43303,-26.23425,11.68034
4.622,0.00362,0.00022,-0.00380,-0.05747,0.04817,-9.77473,37.092,38.026,38.340,43.890,-47.52675,-26.32807,11.74950
4.632,0.00348,0.00013,-0.00376,-0.00935,0.03030,-9.77483,37.092,38.026,38.340,43.890,-47.62053,-26.42139,11.81841
4.642,0.00322,0.00004,-0.00376,-0.03734,0.04343,-9.77019,37.092,38.026,38.340,43.890,-47.71389,-26.51525,11.88781
4.652,0.00326,0.00013,-0.00376,0.02402,0.06472,-9.81386,37.092,38.026,38.340,43.890,-47.80790,-26.60849,11.95686
4.662,0.00331,0.00026,-0.00385,0.00080,0.05764,-9.78457,37.092,38.026,38.341,44.001,-47.90163,-26.70250,12.02658
4.672,0.00348,0.00049,-0.00389,0.00465,0.04370,-9.83354,37.092,38.026,38.341,43.890,-47.99519,-26.79680,12.09661
4.682,0.00326,0.00066,-0.00385,-0.00559,0.05362,-9.81474,37.092,38.026,38.341,43.780,-48.08881,-26.89173,12.16722
4.692,0.00326,0.00075,-0.00389,0.03269,0.04490,-9.80005,37.092,38.026,38.341,43.890,-48.18276,-26.98659,12.23787
4.702,0.00339,0.00084,-0.00394,-0.02374,0.04846,-9.80353,37.092,38.026,38.341,43.890,-48.27642,-27.08291,12.30972
4.712,0.00322,0.00098,-0.00394,-0.00864,-0.00903,-9.83332,37.154,38.026,38.341,43.890,-48.36975,-27.17953,12.38191
4.722,0.00326,0.00115,-0.00394,0.02382,0.05278,-9.82586,37.154,38.026,38.341,43.780,-48.46342,-27.27555,12.45373
4.732,0.00313,0.00133,-0.00394,0.01658,0.03816,-9.80893,37.154,38.026,38.341,43.890,-48.55709,-27.37231,12.52622
4.742,0.00304,0.00120,-0.00398,0.03348,0.01760,-9.81840,37.154,38.026,38.341,43.890,-48.65076,-27.46934,12.59901
4.752,0.00290,0.00106,-0.00407,-0.04506,0.02249,-9.80670,37.154,38.026,38.341,44.001,-48.74396,-27.56816,12.67326
4.762,0.00291,0.00091,-0.00403,0.00806,0.04265,-9.81542,37.154,38.071,38.341,43.890,-48.83755,-27.66636,12.74715
4.772,0.00317,0.00091,-0.00389,-0.03894,0.07311,-9.83991,37.154,38.071,38.341,43.890,-48.93052,-27.76519,12.82162
4.782,0.00348,0.00087,-0.00389,0.04885,0.02355,-9.81555,37.154,38.071,38.341,43.669,-49.02399,-27.86337,12.89570
4.792,0.00331,0.00091,-0.00380,0.02430,0.06176,-9.78128,37.154,38.071,38.341,43.890,-49.11716,-27.96192,12.97017
4.802,0.00308,0.00096,-0.00394,-0.01629,0.00177,-9.79039,37.154,38.071,38.341,43.890,-49.20977,-28.06189,13.04580
4.812,0.00317,0.00087,-0.00407,0.01029,0.07309,-9.78743,37.154,38.071,38.341,43.890,-49.30266,-28.16130,13.12114
4.822,0.00317,0.00096,-0.00407,-0.01673,0.03413,-9.86816,37.154,38.071,38.341,43.890,-49.39460,-28.26119,13.19693
4.832,0.00317,0.00100,-0.00412,0.01318,0.03350,-9.81334,37.154,38.071,38.341,43.890,-49.48692,-28.36123,13.27295
4.842,0.00326,0.00100,-0.00416,0.00750,0.08491,-9.79997,37.154,38.071,38.341,43.890,-49.57946,-28.46163,13.34933
4.852,0.00335,0.00105,-0.00416,-0.01363,0.04206,-9.80064,37.154,38.071,38.341,43.890,-49.67176,-28.56318,13.42671
4.862,0.00357,0.00118,-0.00421,-0.00754,0.05285,-9.81032,37.154,38.071,38.336,44.001,-49.76425,-28.66514,13.50450
4.872,0.00375,0.00105,-0.00412,-0.01852,0.06312,-9.79876,37.154,38.071,38.336,43.890,-49.85665,-28.76768,13.58284
4.882,0.00393,0.00092,-0.00416,-0.01279,0.03251,-9.79013,37.154,38.071,38.336,43.890,-49.94883,-28.87065,13.66162
4.892,0.00411,0.00087,-0.00430,0.00302,-0.00979,-9.75566,37.154,38.071,38.336,43.669,-50.04048,-28.97354,13.74045
4.902,0.00406,0.00092,-0.00439,-0.01987,0.08949,-9.82866,37.154,38.071,38.336,43.780,-50.13213,-29.07651,13.81944
4.912,0.00384,0.00092,-0.00439,-0.00797,0.02520,-9.81460,37.165,38.071,38.336,43.780,-50.22376,-29.18028,13.89917
4.922,0.00389,0.00105,-0.00443,-0.00217,0.02564,-9.81578,37.165,38.071,38.336,43.890,-50.31547,-29.28451,13.97933
4.932,0.00389,0.00096,-0.00430,0.01287,0.01861,-9.78994,37.165,38.071,38.336,43.890,-50.40715,-29.38893,14.05975
4.942,0.00389,0.00069,-0.00412,-0.02595,0.03923,-9.80269,37.165,38.071,38.336,43.890,-50.49866,-29.49440,14.14110
4.952,0.00389,0.00043,-0.00407,-0.03923,0.01835,-9.80183,37.165,38.071,38.336,43.890,-50.59004,-29.60078,14.22326
4.962,0.00384,0.00025,-0.00398,0.00890,0.06420,-9.79945,37.165,38.074,38.336,43.890,-50.68190,-29.70657,14.30505
4.972,0.00393,0.00016,-0.00389,0.01419,0.02801,-9.85352,37.165,38.074,38.336,44.001,-50.77314,-29.81241,14.38702
4.982,0.00407,0.00016,-0.00385,0.01062,0.01815,-9.80523,37.165,38.074,38.336,43.890,-50.86444,-29.91903,14.46968
4.992,0.00357,0.00033,-0.00367,0.00411,0.03659,-9.77802,37.165,38.074,38.336,43.780,-50.95547,-30.02584,14.55259
5.002,0.00335,0.00042,-0.00362,0.01583,0.05403,-9.76600,37.165,38.074,38.336,43.780,-51.04630,-30.13246,14.63546
5.012,0.00344,0.00042,-0.00362,-0.01432,0.04313,-9.82477,37.165,38.074,38.336,43.890,-51.13679,-30.24010,14.71923
5.022,0.00353,0.00051,-0.00358,-0.02701,0.01716,-9.85806,37.165,38.074,38.336,43.890,-51.22665,-30.34812,14.80341
5.032,0.00353,0.00051,-0.00367,-0.03461,0.04457,-9.78064,37.165,38.074,38.336,43.890,-51.31646,-30.45652,14.88798
5.042,0.00344,0.00051,-0.00371,0.06476,0.01949,-9.82068,37.165,38.074,38.336,43.890,-51.40700,-30.56409,14.97201
5.052,0.00344,0.00056,-0.00376,-0.01788,0.03174,-9.77286,37.165,38.074,38.336,43.890,-51.49672,-30.67319,15.05736
5.062,0.00362,0.00065,-0.00380,-0.01472,0.07006,-9.80321,37.165,38.074,38.343,43.890,-51.58680,-30.78279,15.14320
5.072,0.00384,0.00069,-0.00380,-0.03413,0.07675,-9.80091,37.165,38.074,38.343,44.001,-51.67680,-30.89332,15.22986
5.082,0.00398,0.00069,-0.00380,-0.03698,0.05714,-9.80203,37.165,38.074,38.343,44.001,-51.76683,-31.00469,15.31730
5.092,0.00429,0.00078,-0.00385,0.01993,0.00986,-9.79067,37.165,38.074,38.343,43.780,-51.85701,-31.11587,15.40471
5.102,0.00406,0.00083,-0.00385,-0.01356,0.06969,-9.80360,37.165,38.074,38.343,43.890,-51.94719,-31.22787,15.49284
5.112,0.00380,0.00083,-0.00371,-0.04495,0.04401,-9.79918,37.159,38.074,38.343,43.890,-52.03700,-31.34106,15.58204
5.122,0.00388,0.00091,-0.00367,-0.02925,0.01661,-9.78208,37.159,38.074,38.343,43.890,-52.12657,-31.45444,15.67150
5.132,0.00420,0.00127,-0.00363,-0.00052,0.01455,-9.81049,37.159,38.074,38.343,43.890,-52.21640,-31.56801,15.76121
5.142,0.00406,0.00141,-0.00358,0.01139,0.00790,-9.77502,37.159,38.074,38.343,43.669,-52.30594,-31.68157,15.85102
5.152,0.00384,0.00145,-0.00358,-0.02792,0.07528,-9.80289,37.159,38.074,38.343,43.890,-52.39545,-31.79600,15.94162
5.162,0.00379,0.00143,-0.00354,-0.00295,0.05332,-9.79904,37.159,38.119,38.343,43.669,-52.48503,-31.91072,16.03257
5.172,0.00379,0.00143,-0.00349,-0.00302,0.03558,-9.82428,37.159,38.119,38.343,43.890,-52.57441,-32.02596,16.12403
5.182,0.00384,0.00161,-0.00340,-0.03413,0.05592,-9.83337,37.159,38.119,38.343,43.780,-52.66331,-32.14181,16.21609
5.192,0.00388,0.00197,-0.00327,-0.01260,0.04598,-9.78096,37.159,38.119,38.343,43.890,-52.75211,-32.25770,16.30829
5.202,0.00379,0.00192,-0.00327,-0.01824,0.02115,-9.84116,37.159,38.119,38.343,43.890,-52.84048,-32.37406,16.40097
5.212,0.00361,0.00188,-0.00322,-0.02638,0.06009,-9.75817,37.159,38.119,38.343,44.001,-52.92850,-32.49038,16.49372
5.222,0.00335,0.00188,-0.00331,-0.00514,0.04673,-9.81229,37.159,38.119,38.343,43.669,-53.01678,-32.60722,16.58700
5.232,0.00335,0.00192,-0.00353,-0.01700,0.02407,-9.77684,37.159,38.119,38.343,43.890,-53.10467,-32.72478,16.68097
5.242,0.00348,0.00192,-0.00358,-0.03691,0.05670,-9.81851,37.159,38.119,38.343,44.001,-53.19256,-32.84312,16.77566
5.252,0.00370,0.00201,-0.00358,-0.02748,0.03198,-9.78537,37.159,38.119,38.343,43.780,-53.28031,-32.96195,16.87085
5.262,0.00361,0.00210,-0.00367,-0.01197,0.00100,-9.80564,37.159,38.119,38.337,43.780,-53.36821,-33.08155,16.96678
5.272,0.00393,0.00179,-0.00371,0.01108,0.02600,-9.75260,37.159,38.119,38.337,43.890,-53.45584,-33.20054,17.06231
5.282,0.00406,0.00134,-0.00376,0.01781,0.01874,-9.76902,37.159,38.119,38.337,44.001,-53.54324,-33.31976,17.15816
5.292,0.00393,0.00108,-0.00380,-0.01980,0.08412,-9.82903,37.159,38.119,38.337,44.001,-53.63044,-33.43970,17.25469
5.302,0.00420,0.00090,-0.00389,-0.01940,0.04654,-9.81959,37.159,38.119,38.337,44.001,-53.71758,-33.56059,17.35209
5.312,0.00433,0.00063,-0.00407,-0.01419,0.05702,-9.80233,37.097,38.119,38.337,43.780,-53.80491,-33.68216,17.45017
5.322,0.00411,0.00050,-0.00425,-0.05357,0.08576,-9.79542,37.097,38.119,38.337,43.890,-53.89200,-33.80482,17.54922
5.332,0.00406,0.00041,-0.00430,-0.00104,0.02416,-9.80371,37.097,38.119,38.337,43.890,-53.97935,-33.92780,17.64865
5.342,0.00415,0.00010,-0.00434,0.00317,0.06257,-9.81072,37.097,38.119,38.337,43.890,-54.06686,-34.05117,17.74851
5.352,0.00429,-0.00012,-0.00425,-0.04763,0.01856,-9.82640,37.097,38.119,38.337,43.669,-54.15361,-34.17602,17.84968
5.362,0.00447,-0.00024,-0.00403,-0.05674,0.09224,-9.79587,37.097,38.067,38.337,44.001,-54.24045,-34.30112,17.95116
5.372,0.00429,-0.00028,-0.00407,-0.04802,0.01628,-9.81835,37.097,38.067,38.337,43.890,-54.32700,-34.42715,18.05350
5.382,0.00438,-0.00028,-0.00412,-0.01171,0.01480,-9.81295,37.097,38.067,38.337,43.890,-54.41381,-34.55325,18.15601
5.392,0.00451,-0.00033,-0.00412,-0.00840,0.01838,-9.78441,37.097,38.067,38.337,43.890,-54.50037,-34.67963,18.25888
5.402,0.00429,-0.00024,-0.00407,0.02687,0.05437,-9.81902,37.097,38.067,38.337,43.890,-54.58719,-34.80576,18.36163
5.412,0.00433,0.00003,-0.00412,-0.04196,0.01492,-9.78574,37.097,38.067,38.337,43.890,-54.67315,-34.93367,18.46596
5.422,0.00451,0.00016,-0.00416,-0.01921,-0.00296,-9.81812,37.097,38.067,38.337,43.890,-54.75913,-35.06194,18.57068
5.432,0.00433,0.00021,-0.00403,-0.01291,-0.01401,-9.81441,37.097,38.067,38.337,43.780,-54.84507,-35.19083,18.67603
5.442,0.00429,0.00030,-0.00381,-0.03600,0.03151,-9.77937,37.097,38.067,38.337,43.890,-54.93067,-35.32009,18.78178
5.452,0.00446,0.00043,-0.00358,0.01922,0.06935,-9.78898,37.097,38.067,38.337,43.890,-55.01671,-35.44878,18.88717
5.462,0.00442,0.00092,-0.00349,-0.02629,0.03995,-9.81516,37.097,38.067,38.345,43.890,-55.10221,-35.57906,18.99398
5.472,0.00428,0.00123,-0.00345,0.03434,0.03686,-9.80241,37.097,38.067,38.345,43.669,-55.18816,-35.70911,19.10070
5.482,0.00424,0.00141,-0.00349,-0.00077,0.03680,-9.81222,37.097,38.067,38.345,43.890,-55.27377,-35.84042,19.20857
5.492,0.00428,0.00145,-0.00367,0.00663,0.05463,-9.78494,37.097,38.067,38.345,44.001,-55.35922,-35.97187,19.31668
5.502,0.00446,0.00141,-0.00372,-0.04623,0.03048,-9.82484,37.097,38.067,38.345,43.890,-55.44399,-36.10482,19.42612
5.512,0.00437,0.00141,-0.00381,-0.04466,0.07405,-9.76918,37.174,38.067,38.345,43.890,-55.52851,-36.23763,19.53555
5.522,0.00428,0.00168,-0.00381,-0.01219,0.06041,-9.82807,37.174,38.067,38.345,43.890,-55.61310,-36.37054,19.64519
5.532,0.00442,0.00181,-0.00381,-0.01161,0.05258,-9.76008,37.174,38.067,38.345,44.111,-55.69719,-36.50358,19.75503
5.542,0.00433,0.00159,-0.00367,-0.01227,0.02938,-9.81223,37.174,38.067,38.345,43.890,-55.78126,-36.63768,19.86587
5.552,0.00433,0.00150,-0.00354,-0.01253,0.03717,-9.77407,37.174,38.067,38.345,44.001,-55.86512,-36.77213,19.97710
5.562,0.00437,0.00157,-0.00363,0.02603,0.04833,-9.78562,37.174,38.120,38.345,44.001,-55.94917,-36.90650,20.08839
5.572,0.00428,0.00161,-0.00372,-0.01915,0.08193,-9.79444,37.174,38.120,38.345,43.890,-56.03292,-37.04215,20.20085
5.582,0.00406,0.00170,-0.00380,0.01270,0.03965,-9.80895,37.174,38.120,38.345,43.780,-56.11687,-37.17849,20.31397
5.592,0.00424,0.00170,-0.00385,0.00051,0.07201,-9.84738,37.174,38.120,38.345,43.890,-56.20043,-37.31501,20.42737
5.602,0.00424,0.00139,-0.00394,-0.00085,0.06949,-9.79309,37.174,38.120,38.345,43.669,-56.28389,-37.45228,20.54150
5.612,0.00424,0.00094,-0.00398,-0.01357,0.04240,-9.81592,37.174,38.120,38.345,43.890,-56.36712,-37.59074,20.65674
5.622,0.00424,0.00068,-0.00394,-0.02180,0.04163,-9.78700,37.174,38.120,38.345,43.890,-56.45012,-37.72989,20.77266
5.632,0.00433,0.00054,-0.00394,-0.00431,0.06411,-9.78222,37.174,38.120,38.345,43.890,-56.53312,-37.86913,20.88876
5.642,0.00447,0.00045,-0.00394,-0.03928,0.05253,-9.79478,37.174,38.120,38.345,43.890,-56.61569,-38.00972,21.00611
5.652,0.00433,0.00041,-0.00403,-0.01264,0.05969,-9.81118,37.174,38.120,38.345,43.890,-56.69853,-38.15075,21.12395
5.662,0.00424,0.00028,-0.00412,-0.05626,0.05119,-9.79404,37.174,38.120,38.349,43.780,-56.78080,-38.29316,21.24305
5.672,0.00451,0.00005,-0.00430,0.00671,0.03678,-9.84515,37.174,38.120,38.349,43.890,-56.86317,-38.43488,21.36169
5.682,0.00447,-0.00008,-0.00448,0.00406,0.04575,-9.79174,37.174,38.120,38.349,43.890,-56.94542,-38.57727,21.48100
5.692,0.00460,-0.00021,-0.00457,-0.03419,0.00136,-9.85077,37.174,38.120,38.349,43.890,-57.02678,-38.72070,21.60129
5.702,0.00478,-0.00030,-0.00470,0.02167,0.03095,-9.80324,37.174,38.120,38.349,43.890,-57.10872,-38.86409,21.72166
5.712,0.00505,-0.00025,-0.00479,0.01333,0.03187,-9.84469,37.163,38.120,38.349,43.890,-57.19028,-39.00791,21.84250
5.722,0.00487,-0.00025,-0.00488,0.00971,-0.04282,-9.78561,37.163,38.120,38.349,43.890,-57.27136,-39.15289,21.96444
5.732,0.00500,-0.00025,-0.00484,0.00242,0.02459,-9.80168,37.163,38.120,38.349,43.890,-57.35266,-39.29857,22.08706
5.742,0.00500,-0.00012,-0.00475,-0.01204,0.05307,-9.84251,37.163,38.120,38.349,43.890,-57.43359,-39.44461,22.21012
5.752,0.00500,-0.00003,-0.00461,-0.01169,0.04436,-9.80989,37.163,38.120,38.349,43.890,-57.51453,-39.59172,22.33418
5.762,0.00487,0.00005,-0.00452,-0.01317,0.09319,-9.77678,37.163,38.133,38.349,43.780,-57.59530,-39.73898,22.45847
5.772,0.00478,0.00019,-0.00452,-0.04110,0.03007,-9.84935,37.163,38.133,38.349,43.890,-57.67526,-39.88729,22.58377
5.782,0.00509,0.00027,-0.00443,-0.02269,0.01213,-9.76836,37.163,38.133,38.349,43.890,-57.75501,-40.03585,22.70938
5.792,0.00514,0.00041,-0.00439,-0.00240,0.06909,-9.79189,37.163,38.133,38.349,43.780,-57.83509,-40.18466,22.83531
5.802,0.00473,0.00067,-0.00434,0.02240,0.03631,-9.80809,37.163,38.133,38.349,44.001,-57.91531,-40.33440,22.96214
5.812,0.00478,0.00085,-0.00421,0.01422,0.03893,-9.79970,37.163,38.133,38.349,43.890,-57.99545,-40.48522,23.08999
5.822,0.00460,0.00099,-0.00407,-0.00704,0.00379,-9.79197,37.163,38.133,38.349,43.890,-58.07516,-40.63733,23.21904
5.832,0.00446,0.00103,-0.00381,-0.00307,0.01022,-9.83460,37.163,38.133,38.349,44.111,-58.15464,-40.78978,23.34850
5.842,0.00451,0.00089,-0.00354,0.06770,0.08755,-9.79128,37.163,38.133,38.349,43.890,-58.23479,-40.94140,23.47737
5.852,0.00460,0.00094,-0.00331,-0.03034,0.04955,-9.79874,37.163,38.133,38.349,43.669,-58.31394,-41.09570,23.60861
5.862,0.00464,0.00081,-0.00327,0.00794,0.07194,-9.77778,37.163,38.133,38.341,43.890,-58.39322,-41.24971,23.73973
5.872,0.00469,0.00067,-0.00331,-0.01019,0.04252,-9.79218,37.163,38.133,38.341,44.001,-58.47203,-41.40494,23.87201
5.882,0.00451,0.00067,-0.00336,-0.01544,0.03206,-9.80140,37.163,38.133,38.341,43.890,-58.55076,-41.56131,24.00536
5.892,0.00451,0.00072,-0.00349,0.02813,0.03225,-9.78191,37.163,38.133,38.341,43.890,-58.62955,-41.71749,24.13866
5.902,0.00433,0.00072,-0.00358,-0.03943,0.04741,-9.83536,37.163,38.133,38.341,44.001,-58.70754,-41.87510,24.27329
5.912,0.00389,0.00085,-0.00358,-0.01606,0.04783,-9.79023,37.167,38.133,38.341,43.890,-58.78552,-42.03309,24.40836
5.922,0.00388,0.00103,-0.00349,-0.00800,0.02294,-9.79890,37.167,38.133,38.341,43.890,-58.86340,-42.19205,24.54438
5.932,0.00402,0.00089,-0.00336,0.01609,0.04547,-9.80254,37.167,38.133,38.341,44.001,-58.94154,-42.35151,24.68093
5.942,0.00397,0.00067,-0.00340,-0.00747,0.04671,-9.80989,37.167,38.133,38.341,43.890,-59.01939,-42.51231,24.81875
5.952,0.00393,0.00049,-0.00345,-0.02296,0.07348,-9.78316,37.167,38.133,38.341,43.890,-59.09685,-42.67361,24.95710
5.962,0.00389,0.00045,-0.00358,-0.05119,0.01630,-9.79986,37.167,38.116,38.341,43.890,-59.17377,-42.83662,25.09703
5.972,0.00380,0.00054,-0.00376,0.02803,0.05476,-9.82063,37.167,38.116,38.341,43.890,-59.25127,-42.99887,25.23642
5.982,0.00380,0.00072,-0.00398,-0.01081,0.07235,-9.82169,37.167,38.116,38.341,44.001,-59.32832,-43.16232,25.37696
5.992,0.00357,0.00130,-0.00416,-0.01915,0.02239,-9.81182,37.167,38.116,38.341,44.001,-59.40494,-43.32711,25.51876
6.002,0.00344,0.00148,-0.00421,-0.03116,0.01391,-9.77966,37.167,38.116,38.341,43.669,-59.48108,-43.49257,25.66123
6.012,0.00357,0.00152,-0.00438,0.02165,0.00519,-9.81839,37.167,38.116,38.341,43.890,-59.55747,-43.65806,25.80387
6.022,0.00371,0.00148,-0.00434,-0.03073,0.02568,-9.82234,37.167,38.116,38.341,44.001,-59.63326,-43.82496,25.94781
6.032,0.00397,0.00144,-0.00421,-0.01801,0.06683,-9.83899,37.167,38.116,38.341,43.890,-59.70891,-43.99178,26.09180
6.042,0.00424,0.00135,-0.00421,0.00805,0.06197,-9.77612,37.167,38.116,38.341,43.780,-59.78442,-44.15869,26.23599
6.052,0.00420,0.00157,-0.00416,-0.01877,0.05388,-9.80676,37.167,38.116,38.341,43.890,-59.85969,-44.32731,26.38175
6.062,0.00406,0.00166,-0.00421,0.00204,0.05606,-9.80064,37.167,38.116,38.347,43.890,-59.93501,-44.49657,26.52818
6.072,0.00411,0.00157,-0.00416,0.01287,0.03192,-9.82741,37.167,38.116,38.347,43.890,-60.01005,-44.66645,26.67528
6.082,0.00411,0.00157,-0.00407,0.04479,0.00092,-9.79775,37.167,38.116,38.347,43.890,-60.08515,-44.83700,26.82304
6.092,0.00406,0.00161,-0.00403,0.02794,0.01574,-9.78303,37.167,38.116,38.347,43.780,-60.15979,-45.00821,26.97151
6.102,0.00397,0.00166,-0.00407,-0.01586,0.03018,-9.78812,37.167,38.116,38.347,44.001,-60.23389,-45.18076,27.12123
6.112,0.00402,0.00175,-0.00398,0.00969,0.06686,-9.81193,37.165,38.116,38.347,43.780,-60.30822,-45.35373,27.27144
6.122,0.00402,0.00201,-0.00372,0.02421,0.01826,-9.82045,37.165,38.116,38.347,43.890,-60.38227,-45.52756,27.42250
6.132,0.00410,0.00224,-0.00354,-0.01233,0.03512,-9.81588,37.165,38.116,38.347,43.890,-60.45590,-45.70275,27.57486
6.142,0.00402,0.00215,-0.00336,0.03221,0.06209,-9.82547,37.165,38.116,38.347,43.780,-60.52972,-45.87779,27.72718
6.152,0.00397,0.00215,-0.00331,0.01338,0.02613,-9.83944,37.165,38.116,38.347,43.890,-60.60286,-46.05368,27.88037
6.162,0.00375,0.00216,-0.00331,-0.04256,0.09174,-9.76605,37.165,38.080,38.347,43.780,-60.67526,-46.23027,28.03428
6.172,0.00344,0.00220,-0.00336,-0.00475,0.00917,-9.79882,37.165,38.080,38.347,43.890,-60.74763,-46.40794,28.18922
6.182,0.00348,0.00234,-0.00345,0.01059,0.04738,-9.78609,37.165,38.080,38.347,43.890,-60.82003,-46.58596,28.34458
6.192,0.00357,0.00278,-0.00340,0.00303,0.04678,-9.82552,37.165,38.080,38.347,44.111,-60.89210,-46.76488,28.50085
6.202,0.00352,0.00278,-0.00336,-0.02904,-0.00864,-9.76104,37.165,38.080,38.347,43.890,-60.96322,-46.94482,28.65809
6.212,0.00379,0.00252,-0.00345,-0.02021,0.03477,-9.77852,37.165,38.080,38.347,43.890,-61.03433,-47.12510,28.81575
6.222,0.00401,0.00238,-0.00345,0.00039,0.07210,-9.81883,37.165,38.080,38.347,43.890,-61.10559,-47.30597,28.97405
6.232,0.00397,0.00225,-0.00340,0.01457,0.01813,-9.82411,37.165,38.080,38.347,43.780,-61.17667,-47.48792,29.13340
6.242,0.00384,0.00216,-0.00340,-0.02802,0.00707,-9.77237,37.165,38.080,38.347,43.890,-61.24688,-47.67105,29.29390
6.252,0.00410,0.00216,-0.00354,0.00800,0.10984,-9.80573,37.165,38.080,38.347,43.669,-61.31779,-47.85446,29.45473
6.262,0.00415,0.00212,-0.00372,-0.03675,0.05050,-9.83818,37.165,38.080,38.345,43.890,-61.38774,-48.03941,29.61704
6.272,0.00415,0.00167,-0.00385,-0.01220,0.03951,-9.76564,37.165,38.080,38.345,43.890,-61.45745,-48.22444,29.77953
6.282,0.00411,0.00127,-0.00389,-0.00384,0.02116,-9.77234,37.165,38.080,38.345,43.780,-61.52679,-48.41002,29.94262
6.292,0.00402,0.00109,-0.00389,-0.04947,0.01086,-9.82596,37.165,38.080,38.345,43.890,-61.59554,-48.59736,30.10736
6.302,0.00433,0.00100,-0.00372,0.03103,0.02947,-9.82048,37.165,38.080,38.345,43.890,-61.66492,-48.78458,30.27211
6.312,0.00428,0.00096,-0.00372,-0.00044,0.03419,-9.79170,37.105,38.080,38.345,43.890,-61.73384,-48.97327,30.43824
6.322,0.00433,0.00109,-0.00381,0.03385,0.06461,-9.76276,37.105,38.080,38.345,43.890,-61.80278,-49.16161,30.60418
6.332,0.00437,0.00136,-0.00389,-0.00956,0.03815,-9.83880,37.105,38.080,38.345,43.780,-61.87086,-49.35138,30.77149
6.342,0.00397,0.00123,-0.00389,-0.02025,0.05306,-9.81922,37.105,38.080,38.345,43.890,-61.93879,-49.54247,30.94006
6.352,0.00375,0.00096,-0.00394,-0.00179,0.03136,-9.82948,37.105,38.080,38.345,43.890,-62.00653,-49.73426,31.10938
6.362,0.00402,0.00086,-0.00394,0.01190,0.05070,-9.83234,37.105,38.108,38.345,43.890,-62.07421,-49.92659,31.27925
6.372,0.00411,0.00081,-0.00394,0.01415,0.03367,-9.76791,37.105,38.108,38.345,43.890,-62.14142,-50.11944,31.44972
6.382,0.00397,0.00081,-0.00394,-0.00219,0.05144,-9.79099,37.105,38.108,38.345,43.890,-62.20844,-50.31364,31.62146
6.392,0.00397,0.00099,-0.00389,0.02462,0.05276,-9.83229,37.105,38.108,38.345,43.890,-62.27536,-50.50823,31.79368
6.402,0.00379,0.00117,-0.00394,0.02791,0.05561,-9.79530,37.105,38.108,38.345,43.890,-62.34218,-50.70400,31.96703
6.412,0.00384,0.00104,-0.00389,-0.00699,0.00717,-9.81289,37.105,38.108,38.345,43.890,-62.40842,-50.90187,32.14235
6.422,0.00406,0.00090,-0.00394,-0.00906,0.03951,-9.77769,37.105,38.108,38.345,43.890,-62.47433,-51.10017,32.31815
6.432,0.00397,0.00073,-0.00398,-0.00506,0.03793,-9.80541,37.105,38.108,38.345,43.890,-62.54019,-51.29983,32.49527
6.442,0.00397,0.00064,-0.00385,-0.01112,0.01761,-9.77718,37.105,38.108,38.345,43.890,-62.60556,-51.50025,32.67318
6.452,0.00388,0.00055,-0.00367,-0.00009,0.03422,-9.78204,37.105,38.108,38.345,44.001,-62.67070,-51.70116,32.85162
6.462,0.00366,0.00059,-0.00345,0.03112,0.04643,-9.79765,37.105,38.108,38.346,43.890,-62.73604,-51.90275,33.03077
6.472,0.00379,0.00090,-0.00336,-0.00614,0.05717,-9.78581,37.105,38.108,38.346,43.890,-62.80076,-52.10566,33.21119
6.482,0.00379,0.00112,-0.00345,-0.02049,0.04115,-9.82077,37.105,38.108,38.346,43.890,-62.86500,-52.30984,33.39285
6.492,0.00353,0.00126,-0.00358,0.02035,0.00718,-9.79066,37.105,38.108,38.346,43.890,-62.92925,-52.51463,33.57515
6.502,0.00353,0.00130,-0.00363,-0.05166,0.04061,-9.75778,37.105,38.108,38.346,43.780,-62.99240,-52.72026,33.75829
6.512,0.00330,0.00135,-0.00362,-0.01029,0.06617,-9.83573,37.134,38.108,38.346,43.890,-63.05563,-52.92588,33.94156
6.522,0.00335,0.00148,-0.00362,-0.03869,0.01253,-9.82231,37.134,38.108,38.346,43.890,-63.11818,-53.13334,34.12654
6.532,0.00361,0.00179,-0.00345,0.01569,0.07886,-9.80151,37.134,38.108,38.346,43.890,-63.18135,-53.34112,34.31191
6.542,0.00361,0.00170,-0.00340,-0.03436,0.03754,-9.82081,37.134,38.108,38.346,43.669,-63.24366,-53.55085,34.49912
6.552,0.00357,0.00152,-0.00331,-0.07285,0.06087,-9.82713,37.134,38.108,38.346,43.890,-63.30532,-53.76173,34.68748
6.562,0.00366,0.00152,-0.00327,0.03246,0.04433,-9.74175,37.134,38.128,38.346,44.001,-63.36726,-53.97101,34.87450
6.572,0.00357,0.00152,-0.00336,-0.03218,0.04414,-9.80475,37.134,38.128,38.346,44.111,-63.42846,-54.18274,35.06382
6.582,0.00375,0.00152,-0.00340,-0.03982,0.02991,-9.78662,37.134,38.128,38.346,43.890,-63.48928,-54.39566,35.25430
6.592,0.00397,0.00165,-0.00354,-0.00952,0.02176,-9.80253,37.134,38.128,38.346,43.890,-63.55020,-54.60968,35.44587
6.602,0.00397,0.00134,-0.00363,-0.00963,0.03212,-9.80459,37.134,38.128,38.346,44.111,-63.61090,-54.82495,35.63866
6.612,0.00397,0.00081,-0.00363,-0.01809,0.01792,-9.77480,37.134,38.128,38.346,44.001,-63.67109,-55.04095,35.83220
6.622,0.00406,0.00040,-0.00354,-0.02593,0.03541,-9.79744,37.134,38.128,38.346,43.890,-63.73095,-55.25806,36.02685
6.632,0.00393,0.00018,-0.00354,-0.00144,0.04394,-9.85688,37.134,38.128,38.346,43.890,-63.79052,-55.47478,36.22126
6.642,0.00406,0.00000,-0.00354,-0.00432,0.01560,-9.82780,37.134,38.128,38.346,43.890,-63.84963,-55.69265,36.41679
6.652,0.00402,-0.00009,-0.00354,0.00074,0.06795,-9.79870,37.134,38.128,38.346,44.001,-63.90881,-55.91156,36.61336
6.662,0.00384,-0.00013,-0.00367,0.00579,0.02129,-9.76748,37.134,38.128,38.351,43.890,-63.96735,-56.13100,36.81048
6.672,0.00375,0.00000,-0.00385,-0.00165,0.03497,-9.78206,37.134,38.128,38.351,43.890,-64.02551,-56.35131,37.00851
6.682,0.00366,0.00018,-0.00394,-0.01159,0.04124,-9.82475,37.134,38.128,38.351,43.890,-64.08331,-56.57282,37.20771
6.692,0.00344,0.00018,-0.00403,-0.00947,0.07899,-9.78996,37.134,38.128,38.351,44.001,-64.14104,-56.79526,37.40784
6.702,0.00344,0.00018,-0.00394,-0.00710,0.00117,-9.77024,37.134,38.128,38.351,43.890,-64.19798,-57.01849,37.60879
6.712,0.00340,0.00023,-0.00398,-0.03154,0.03330,-9.83525,37.166,38.128,38.351,43.890,-64.25446,-57.24266,37.81067
6.722,0.00362,0.00036,-0.00403,0.00752,0.02307,-9.81572,37.166,38.128,38.351,43.890,-64.31105,-57.46785,38.01355
6.732,0.00371,0.00063,-0.00398,0.01523,0.04553,-9.78244,37.166,38.128,38.351,43.890,-64.36741,-57.69362,38.21706
6.742,0.00380,0.00085,-0.00394,-0.00633,0.01792,-9.81656,37.166,38.128,38.351,43.780,-64.42326,-57.92119,38.42230
6.752,0.00371,0.00098,-0.00394,0.03918,0.01888,-9.80029,37.166,38.128,38.351,43.890,-64.47927,-58.14951,38.62828
6.762,0.00384,0.00112,-0.00385,-0.01249,0.01669,-9.81779,37.166,38.115,38.351,43.890,-64.53446,-58.37958,38.83596
6.772,0.00388,0.00117,-0.00381,-0.05417,0.03892,-9.79718,37.166,38.115,38.351,44.001,-64.58904,-58.61121,39.04512
6.782,0.00371,0.00112,-0.00385,0.00403,0.05984,-9.82478,37.166,38.115,38.351,43.890,-64.64384,-58.84280,39.25437
6.792,0.00366,0.00126,-0.00385,-0.01089,0.07431,-9.80723,37.166,38.115,38.351,43.890,-64.69833,-59.07595,39.46510
6.802,0.00371,0.00152,-0.00380,-0.03858,0.03367,-9.81518,37.166,38.115,38.351,44.111,-64.75202,-59.31063,39.67733
6.812,0.00366,0.00157,-0.00380,-0.06603,0.03109,-9.80363,37.166,38.115,38.351,43.890,-64.80516,-59.54694,39.89109
6.822,0.00397,0.00157,-0.00376,-0.00961,0.02145,-9.78041,37.166,38.115,38.351,43.890,-64.85831,-59.78301,40.10476
6.832,0.00411,0.00153,-0.00385,-0.01615,0.05094,-9.77778,37.166,38.115,38.351,43.890,-64.91103,-60.01945,40.31884
6.842,0.00420,0.00148,-0.00385,-0.02447,0.04614,-9.80634,37.166,38.115,38.351,44.001,-64.96336,-60.25743,40.53442
6.852,0.00397,0.00139,-0.00376,0.00258,0.04074,-9.79292,37.166,38.115,38.351,44.001,-65.01554,-60.49603,40.75064
6.862,0.00388,0.00148,-0.00376,-0.04121,0.02749,-9.81757,37.166,38.115,38.343,44.001,-65.06692,-60.73622,40.96841
6.872,0.00393,0.00135,-0.00376,-0.02107,0.02236,-9.81384,37.166,38.115,38.343,44.001,-65.11810,-60.97732,41.18708
6.882,0.00402,0.00112,-0.00380,-0.01898,0.03701,-9.80184,37.166,38.115,38.343,43.890,-65.16901,-61.21945,41.40678
6.892,0.00389,0.00099,-0.00398,-0.00443,0.00846,-9.78032,37.166,38.115,38.343,43.890,-65.21947,-61.46200,41.62696
6.902,0.00389,0.00095,-0.00416,0.04516,0.07227,-9.80818,37.166,38.115,38.343,43.890,-65.27036,-61.70492,41.84756
6.912,0.00393,0.00104,-0.00421,0.02235,0.07582,-9.81433,37.173,38.115,38.343,43.890,-65.32065,-61.94917,42.06945
6.922,0.00411,0.00104,-0.00421,0.01422,0.03894,-9.79889,37.173,38.115,38.343,43.669,-65.37033,-62.19467,42.29259
6.932,0.00393,0.00090,-0.00416,-0.02244,0.03126,-9.78775,37.173,38.115,38.343,43.780,-65.41915,-62.44128,42.51681
6.942,0.00398,0.00032,-0.00407,-0.04627,0.09081,-9.80104,37.173,38.115,38.343,43.890,-65.46765,-62.68901,42.74214
6.952,0.00375,0.00010,-0.00421,-0.01553,0.01699,-9.83148,37.173,38.115,38.343,44.001,-65.51564,-62.93715,42.96794
6.962,0.00353,0.00002,-0.00430,0.00212,0.07912,-9.79192,37.173,38.074,38.343,43.780,-65.56361,-63.18568,43.19418
6.972,0.00340,0.00002,-0.00434,0.02626,0.08153,-9.84289,37.173,38.074,38.343,43.780,-65.61131,-63.43407,43.42037
6.982,0.00327,-0.00002,-0.00439,0.01760,0.08232,-9.80594,37.173,38.074,38.343,43.890,-65.65862,-63.68410,43.64815
6.992,0.00335,0.00002,-0.00443,-0.01426,-0.00741,-9.78751,37.173,38.074,38.343,43.890,-65.70482,-63.93560,43.87735
7.002,0.00327,0.00002,-0.00443,0.00411,0.04647,-9.80621,37.173,38.074,38.343,43.890,-65.75111,-64.18811,44.10754
7.012,0.00349,0.00002,-0.00439,-0.01524,0.01441,-9.80050,37.173,38.074,38.343,43.890,-65.79671,-64.44209,44.33915
7.022,0.00353,-0.00002,-0.00425,-0.00885,0.06132,-9.79710,37.173,38.074,38.343,43.780,-65.84212,-64.69673,44.57148
7.032,0.00353,0.00002,-0.00412,-0.03600,0.03532,-9.78985,37.173,38.074,38.343,44.001,-65.88670,-64.95245,44.80485
7.042,0.00353,-0.00002,-0.00407,-0.03194,0.04464,-9.77098,37.173,38.074,38.343,43.890,-65.93079,-65.20818,45.03831
7.052,0.00353,0.00007,-0.00403,-0.01967,-0.00443,-9.79600,37.173,38.074,38.343,44.001,-65.97438,-65.46502,45.27288
7.062,0.00358,-0.00002,-0.00394,0.01401,0.02092,-9.79076,37.173,38.074,38.348,43.890,-66.01803,-65.72235,45.50796
7.072,0.00380,0.00011,-0.00394,0.00832,0.05035,-9.80823,37.173,38.074,38.348,43.780,-66.06136,-65.98092,45.74427
7.082,0.00393,0.00025,-0.00385,0.02682,0.07410,-9.77128,37.173,38.074,38.348,43.890,-66.10445,-66.23936,45.98053
7.092,0.00415,0.00038,-0.00372,0.00499,0.07028,-9.80594,37.173,38.074,38.348,43.780,-66.14696,-66.49949,46.21841
7.102,0.00415,0.00038,-0.00354,0.01067,0.01203,-9.79997,37.173,38.074,38.348,43.890,-66.18887,-66.76090,46.45754
7.112,0.00429,0.00051,-0.00345,-0.01873,0.01401,-9.79489,37.162,38.074,38.348,43.669,-66.23009,-67.02352,46.69784
7.122,0.00411,0.00065,-0.00336,-0.02212,0.04918,-9.82444,37.162,38.074,38.348,44.001,-66.27092,-67.28667,46.93871
7.132,0.00406,0.00096,-0.00327,0.02747,0.06705,-9.81507,37.162,38.074,38.348,44.001,-66.31190,-67.55027,47.18008
7.142,0.00402,0.00114,-0.00327,-0.01901,0.03552,-9.78897,37.162,38.074,38.348,43.780,-66.35181,-67.81510,47.42264
7.152,0.00411,0.00127,-0.00331,0.01203,0.02512,-9.79199,37.162,38.074,38.348,43.890,-66.39154,-68.08051,47.66580
7.162,0.00424,0.00125,-0.00331,-0.06168,0.01508,-9.78302,37.162,38.137,38.348,43.890,-66.42995,-68.34712,47.91013
7.172,0.00415,0.00129,-0.00318,-0.00883,0.05142,-9.77373,37.162,38.137,38.348,43.890,-66.46852,-68.61330,48.15413
7.182,0.00406,0.00134,-0.00313,-0.00842,0.03285,-9.82027,37.162,38.137,38.348,43.890,-66.50661,-68.88058,48.39923
7.192,0.00406,0.00165,-0.00318,-0.01320,0.01397,-9.82502,37.162,38.137,38.348,43.890,-66.54412,-69.14881,48.64524
7.202,0.00397,0.00169,-0.00322,-0.01312,0.06090,-9.79229,37.162,38.137,38.348,43.890,-66.58136,-69.41777,48.89201
7.212,0.00388,0.00143,-0.00336,0.00345,0.04258,-9.82147,37.162,38.137,38.348,44.001,-66.61823,-69.68749,49.13956
7.222,0.00388,0.00116,-0.00354,0.01115,0.04383,-9.81823,37.162,38.137,38.348,43.890,-66.65475,-69.95818,49.38805
7.232,0.00384,0.00116,-0.00367,0.00628,0.03338,-9.82543,37.162,38.137,38.348,43.890,-66.69072,-70.22962,49.63730
7.242,0.00380,0.00116,-0.00376,-0.00431,0.01483,-9.82860,37.162,38.137,38.348,43.890,-66.72599,-70.50182,49.88730
7.252,0.00388,0.00125,-0.00380,0.01575,0.03668,-9.78922,37.162,38.137,38.348,43.890,-66.76105,-70.77448,50.13783
7.262,0.00433,0.00121,-0.00390,-0.02795,0.00321,-9.77879,37.162,38.137,38.349,44.001,-66.79509,-71.04813,50.38931
7.272,0.00406,0.00080,-0.00389,0.01906,0.05206,-9.79251,37.162,38.137,38.349,44.001,-66.82930,-71.32214,50.64117
7.282,0.00420,0.00054,-0.00390,0.02950,0.04989,-9.78923,37.162,38.137,38.349,44.001,-66.86314,-71.59680,50.89374
7.292,0.00402,0.00045,-0.00389,0.01691,0.06666,-9.78134,37.162,38.137,38.349,43.890,-66.89648,-71.87212,51.14694
7.302,0.00398,0.00036,-0.00389,0.02668,0.05794,-9.78366,37.162,38.137,38.349,43.890,-66.92930,-72.14792,51.40067
7.312,0.00406,0.00027,-0.00381,0.02200,0.02232,-9.85948,37.127,38.137,38.349,43.890,-66.96133,-72.42346,51.65421
7.322,0.00420,0.00040,-0.00376,-0.01564,0.04742,-9.79786,37.127,38.137,38.349,43.890,-66.99271,-72.70063,51.90931
7.332,0.00420,0.00049,-0.00390,0.02500,0.03833,-9.78919,37.127,38.137,38.349,44.001,-67.02399,-72.97841,52.16502
7.342,0.00397,0.00049,-0.00381,-0.05445,0.03085,-9.80076,37.127,38.137,38.349,43.669,-67.05401,-73.25813,52.42258
7.352,0.00380,0.00058,-0.00367,-0.01293,0.03795,-9.77086,37.127,38.137,38.349,43.890,-67.08392,-73.53754,52.67993
7.362,0.00375,0.00055,-0.00358,0.01069,0.04312,-9.79813,37.127,38.094,38.349,43.669,-67.11365,-73.81799,52.93828
7.372,0.00389,0.00046,-0.00358,-0.00948,0.02972,-9.83473,37.127,38.094,38.349,43.890,-67.14260,-74.09900,53.19722
7.382,0.00402,0.00051,-0.00358,-0.02552,-0.03024,-9.80393,37.127,38.094,38.349,43.780,-67.17077,-74.38168,53.45773
7.392,0.00366,0.00068,-0.00354,-0.03134,0.04295,-9.81922,37.127,38.094,38.349,44.001,-67.19864,-74.66499,53.71886
7.402,0.00379,0.00077,-0.00345,-0.01626,0.07878,-9.82939,37.127,38.094,38.349,43.890,-67.22627,-74.94850,53.98025
7.412,0.00384,0.00082,-0.00340,-0.01653,0.06310,-9.81242,37.127,38.094,38.349,43.890,-67.25339,-75.23313,54.24274
7.422,0.00388,0.00064,-0.00336,-0.04213,0.04699,-9.83657,37.127,38.094,38.349,43.890,-67.27966,-75.51808,54.50554
7.432,0.00402,0.00051,-0.00336,-0.01210,0.05046,-9.82158,37.127,38.094,38.349,43.890,-67.30573,-75.80354,54.76889
7.442,0.00406,0.00060,-0.00340,-0.03299,0.01267,-9.80017,37.127,38.094,38.349,43.890,-67.33092,-76.09030,55.03347
7.452,0.00406,0.00077,-0.00345,0.00035,0.02772,-9.77718,37.127,38.094,38.349,43.890,-67.35601,-76.37688,55.29796
7.462,0.00415,0.00117,-0.00331,0.01335,0.01208,-9.79353,37.127,38.094,38.347,43.890,-67.38066,-76.66419,55.56314
7.472,0.00437,0.00144,-0.00327,-0.01040,0.03819,-9.82392,37.127,38.094,38.347,43.890,-67.40465,-76.95218,55.82899
7.482,0.00464,0.00149,-0.00322,0.00382,0.03955,-9.80980,37.127,38.094,38.347,44.001,-67.42837,-77.24128,56.09592
7.492,0.00477,0.00149,-0.00323,0.00506,0.05995,-9.79462,37.127,38.094,38.347,43.890,-67.45166,-77.53094,56.36342
7.502,0.00477,0.00153,-0.00327,-0.00167,0.06913,-9.78143,37.127,38.094,38.347,43.890,-67.47435,-77.82075,56.63109
7.512,0.00464,0.00149,-0.00322,-0.02044,0.06689,-9.81286,37.139,38.094,38.347,43.780,-67.49635,-78.11160,56.89977
7.522,0.00477,0.00162,-0.00309,-0.00133,0.05024,-9.80907,37.139,38.094,38.347,43.890,-67.51797,-78.40334,57.16932
7.532,0.00473,0.00167,-0.00309,-0.03850,0.01687,-9.78695,37.139,38.094,38.347,43.890,-67.53850,-78.69556,57.43936
7.542,0.00455,0.00140,-0.00305,-0.04988,0.05186,-9.84427,37.139,38.094,38.347,43.780,-67.55855,-78.98739,57.70905
7.552,0.00455,0.00140,-0.00305,0.00595,0.03333,-9.84031,37.139,38.094,38.347,43.890,-67.57845,-79.27879,57.97841
7.562,0.00464,0.00145,-0.00318,-0.02416,-0.01068,-9.81247,37.139,38.063,38.347,43.890,-67.59743,-79.57157,58.24908
7.572,0.00451,0.00141,-0.00327,-0.01797,0.05273,-9.80996,37.139,38.063,38.347,43.890,-67.61620,-79.86519,58.52056
7.582,0.00455,0.00132,-0.00331,0.00499,0.06875,-9.80271,37.139,38.063,38.347,44.001,-67.63483,-80.15969,58.79288
7.592,0.00455,0.00128,-0.00340,-0.02090,0.04496,-9.82682,37.139,38.063,38.347,43.780,-67.65250,-80.45441,59.06546
7.602,0.00442,0.00092,-0.00340,0.02630,0.02910,-9.79799,37.139,38.063,38.347,43.890,-67.67009,-80.74967,59.33857
7.612,0.00437,0.00070,-0.00340,-0.03013,0.05464,-9.77062,37.139,38.063,38.347,43.890,-67.68657,-81.04462,59.61140
7.622,0.00433,0.00065,-0.00354,0.04877,0.05699,-9.79884,37.139,38.063,38.347,43.890,-67.70341,-81.34008,59.88478
7.632,0.00411,0.00065,-0.00345,0.00685,0.07910,-9.81401,37.139,38.063,38.347,43.890,-67.71942,-81.63645,60.15900
7.642,0.00415,0.00070,-0.00358,-0.00982,0.02169,-9.82263,37.139,38.063,38.347,43.890,-67.73439,-81.93320,60.43362
7.652,0.00384,0.00074,-0.00380,-0.04965,0.06111,-9.83346,37.139,38.063,38.347,43.890,-67.74860,-82.22994,60.70825
7.662,0.00393,0.00083,-0.00381,-0.01523,0.04627,-9.79906,37.139,38.063,38.354,43.890,-67.76256,-82.52731,60.98349
7.672,0.00389,0.00070,-0.00385,-0.04080,-0.00210,-9.83028,37.139,38.063,38.354,43.890,-67.77552,-82.82490,61.25896
7.682,0.00406,0.00052,-0.00381,-0.00270,0.06332,-9.79548,37.139,38.063,38.354,43.780,-67.78857,-83.12275,61.53471
7.692,0.00406,0.00038,-0.00372,-0.01537,0.05398,-9.78744,37.139,38.063,38.354,43.890,-67.80096,-83.42093,61.81078
7.702,0.00411,0.00034,-0.00367,-0.06903,0.05524,-9.80176,37.139,38.063,38.354,43.780,-67.81219,-83.71992,62.08764
7.712,0.00407,0.00025,-0.00372,-0.01036,0.03588,-9.82632,37.171,38.063,38.354,43.890,-67.82346,-84.01890,62.36449
7.722,0.00380,0.00016,-0.00372,-0.05856,0.05000,-9.79645,37.171,38.063,38.354,43.890,-67.83378,-84.31850,62.64195
7.732,0.00393,0.00007,-0.00381,0.02189,0.05124,-9.82023,37.171,38.063,38.354,43.890,-67.84435,-84.61812,62.91945
7.742,0.00389,0.00007,-0.00390,-0.00667,0.04061,-9.79899,37.171,38.063,38.354,43.890,-67.85402,-84.91833,63.19751
7.752,0.00384,0.00012,-0.00394,-0.01414,0.01637,-9.79166,37.171,38.063,38.354,43.890,-67.86300,-85.21876,63.47579
7.762,0.00402,0.00001,-0.00416,-0.00089,0.03880,-9.78891,37.171,38.113,38.354,43.890,-67.87162,-85.51918,63.75410
7.772,0.00407,-0.00008,-0.00430,0.02631,0.05944,-9.79211,37.171,38.113,38.354,44.001,-67.88010,-85.81974,64.03253
7.782,0.00433,-0.00008,-0.00430,-0.03566,-0.03332,-9.77179,37.171,38.113,38.354,44.001,-67.88696,-86.11990,64.31062
7.792,0.00420,0.00023,-0.00425,0.02822,0.03978,-9.82537,37.171,38.113,38.354,43.890,-67.89421,-86.42002,64.58868
7.802,0.00420,0.00059,-0.00430,-0.00719,0.06087,-9.82323,37.171,38.113,38.354,43.890,-67.90067,-86.72043,64.86701
7.812,0.00424,0.00086,-0.00439,0.00142,0.03578,-9.77963,37.171,38.113,38.354,44.001,-67.90650,-87.02061,65.14516
7.822,0.00420,0.00113,-0.00443,-0.02102,0.04962,-9.81076,37.171,38.113,38.354,43.890,-67.91170,-87.32166,65.42411
7.832,0.00406,0.00126,-0.00452,0.01521,0.02660,-9.81812,37.171,38.113,38.354,43.669,-67.91657,-87.62297,65.70331
7.842,0.00397,0.00144,-0.00457,-0.00527,0.06204,-9.82403,37.171,38.113,38.354,43.890,-67.92089,-87.92437,65.98259
7.852,0.00411,0.00175,-0.00448,-0.01667,0.01659,-9.83389,37.171,38.113,38.354,44.001,-67.92426,-88.22540,66.26154
7.862,0.00402,0.00197,-0.00443,0.01410,0.02922,-9.83704,37.171,38.113,38.350,43.559,-67.92751,-88.52602,66.54012
7.872,0.00384,0.00166,-0.00434,0.01679,0.04363,-9.78001,37.171,38.113,38.350,43.780,-67.93024,-88.82645,66.81853
7.882,0.00384,0.00144,-0.00416,0.03152,0.05213,-9.81698,37.171,38.113,38.350,43.890,-67.93266,-89.12742,67.09743
7.892,0.00371,0.00144,-0.00394,-0.02171,0.01730,-9.83191,37.171,38.113,38.350,43.890,-67.93384,-89.42823,67.37622
7.902,0.00366,0.00143,-0.00372,0.00078,0.07324,-9.82366,37.171,38.113,38.350,43.890,-67.93493,-89.72920,67.65514
7.912,0.00348,0.00152,-0.00367,-0.00526,0.02903,-9.82667,37.176,38.113,38.350,43.890,-67.93519,-90.03014,67.93404
7.922,0.00397,0.00170,-0.00385,0.04294,0.03954,-9.83294,37.176,38.113,38.350,44.001,-67.93547,-90.33089,68.21274
7.932,0.00406,0.00161,-0.00376,-0.02311,0.06607,-9.81930,37.176,38.113,38.350,43.890,-67.93466,-90.63194,68.49175
7.942,0.00362,0.00130,-0.00371,-0.02498,0.03832,-9.84771,37.176,38.113,38.350,44.001,-67.93309,-90.93210,68.76993
7.952,0.00357,0.00112,-0.00376,-0.02246,0.02975,-9.77930,37.176,38.113,38.350,43.890,-67.93102,-91.23207,69.04791
7.962,0.00380,0.00104,-0.00367,0.00559,0.04350,-9.78167,37.176,38.097,38.350,43.890,-67.92872,-91.53197,69.32584
7.972,0.00384,0.00099,-0.00349,0.00895,0.02584,-9.79603,37.176,38.097,38.350,43.890,-67.92585,-91.83242,69.60426
7.982,0.00384,0.00099,-0.00345,0.01914,0.02013,-9.81526,37.176,38.097,38.350,44.001,-67.92253,-92.13332,69.88311
7.992,0.00379,0.00122,-0.00331,-0.05395,0.05654,-9.80733,37.176,38.097,38.350,43.890,-67.91796,-92.43475,70.16242
8.002,0.00402,0.00126,-0.00331,0.02936,0.03106,-9.79597,37.176,38.097,38.350,44.001,-67.91370,-92.73643,70.44198
8.012,0.00415,0.00108,-0.00345,-0.01335,0.02702,-9.82508,37.176,38.097,38.350,43.890,-67.90836,-93.03770,70.72115
8.022,0.00420,0.00091,-0.00354,-0.04801,0.08531,-9.83238,37.176,38.097,38.350,43.890,-67.90234,-93.33837,70.99973
8.032,0.00433,0.00086,-0.00358,-0.02488,0.05604,-9.83011,37.176,38.097,38.350,44.001,-67.89595,-93.63872,71.27800
8.042,0.00455,0.00077,-0.00358,0.00855,0.03725,-9.82424,37.176,38.097,38.350,44.001,-67.88927,-93.93893,71.55615
8.052,0.00415,0.00073,-0.00349,-0.00977,0.04933,-9.82157,37.176,38.097,38.350,44.001,-67.88187,-94.23908,71.83422
8.062,0.00406,0.00073,-0.00354,-0.03012,0.02847,-9.79220,37.176,38.097,38.348,43.890,-67.87364,-94.53909,72.11215
8.072,0.00415,0.00055,-0.00354,-0.04203,0.03627,-9.82928,37.176,38.097,38.348,43.780,-67.86478,-94.83870,72.38969
8.082,0.00420,0.00042,-0.00336,-0.00313,0.02654,-9.77397,37.176,38.097,38.348,44.001,-67.85574,-95.13749,72.66647
8.092,0.00424,0.00033,-0.00327,-0.03432,0.04929,-9.86309,37.176,38.097,38.348,43.890,-67.84603,-95.43472,72.94176
8.102,0.00415,0.00024,-0.00327,-0.01571,0.03121,-9.82673,37.176,38.097,38.348,43.890,-67.83580,-95.73193,73.21703
8.112,0.00398,0.00024,-0.00327,-0.01548,0.06966,-9.80602,37.176,38.097,38.348,43.890,-67.82523,-96.03000,73.49306
8.122,0.00397,0.00037,-0.00327,-0.01504,0.06354,-9.80076,37.176,38.097,38.348,43.890,-67.81406,-96.32842,73.76942
8.132,0.00389,0.00073,-0.00331,0.01054,0.03494,-9.83307,37.176,38.097,38.348,43.669,-67.80246,-96.62624,74.04518
8.142,0.00366,0.00104,-0.00327,0.01684,0.04587,-9.80013,37.176,38.097,38.348,43.890,-67.79046,-96.92434,74.32117
8.152,0.00371,0.00126,-0.00331,0.03791,0.02542,-9.79148,37.176,38.097,38.348,44.001,-67.77808,-97.22227,74.59699
8.162,0.00357,0.00136,-0.00331,0.07188,0.00804,-9.82703,37.176,38.083,38.348,44.001,-67.76540,-97.51978,74.87237
8.172,0.00339,0.00140,-0.00331,0.03262,0.05637,-9.81499,37.176,38.083,38.348,43.890,-67.75195,-97.81724,75.14771
8.182,0.00344,0.00153,-0.00336,0.00920,0.00435,-9.79592,37.176,38.083,38.348,43.780,-67.73746,-98.11439,75.42271
8.192,0.00339,0.00193,-0.00336,0.03083,0.04445,-9.81453,37.176,38.083,38.348,43.890,-67.72284,-98.41158,75.69773
8.202,0.00361,0.00211,-0.00336,-0.02130,0.08216,-9.83385,37.176,38.083,38.348,43.890,-67.70735,-98.70770,75.97172
8.212,0.00353,0.00193,-0.00340,0.02172,0.05288,-9.78566,37.176,38.083,38.348,43.890,-67.69165,-99.00334,76.24524
8.222,0.00339,0.00189,-0.00354,-0.00430,0.07094,-9.80437,37.176,38.083,38.348,43.890,-67.67519,-99.29917,76.51891
8.232,0.00362,0.00189,-0.00363,-0.08528,0.06382,-9.81916,37.176,38.083,38.348,43.890,-67.65724,-99.59414,76.79173
8.242,0.00397,0.00189,-0.00380,-0.04375,0.05007,-9.82815,37.176,38.083,38.348,43.890,-67.63924,-99.88863,77.06409
8.252,0.00424,0.00212,-0.00398,0.01719,0.05960,-9.82874,37.176,38.083,38.348,43.890,-67.62135,-100.18262,77.33595
8.262,0.00437,0.00221,-0.00394,-0.02222,-0.00763,-9.82494,37.176,38.083,38.348,43.890,-67.60226,-100.47585,77.60707
8.272,0.00478,0.00172,-0.00385,-0.00646,0.03779,-9.84119,37.176,38.083,38.356,43.890,-67.58300,-100.76805,77.87720
8.282,0.00500,0.00123,-0.00372,-0.04398,0.07041,-9.82826,37.176,38.083,38.356,43.780,-67.56300,-101.05959,78.14670
8.292,0.00513,0.00083,-0.00372,-0.02586,0.05733,-9.78308,37.176,38.083,38.356,44.001,-67.54263,-101.35061,78.41567
8.302,0.00531,0.00065,-0.00367,-0.02123,0.03503,-9.81229,37.176,38.083,38.356,43.890,-67.52165,-101.64175,78.68472
8.312,0.00518,0.00056,-0.00358,0.00739,0.03153,-9.80974,37.089,38.083,38.356,43.890,-67.50037,-101.93301,78.95384
8.322,0.00513,0.00056,-0.00354,0.00958,0.05143,-9.83356,37.089,38.083,38.356,43.890,-67.47874,-102.22346,79.22218
8.332,0.00504,0.00065,-0.00363,-0.02999,0.06852,-9.75059,37.089,38.083,38.356,43.890,-67.45636,-102.51168,79.48840
8.342,0.00504,0.00056,-0.00376,-0.00306,0.00375,-9.81808,37.089,38.083,38.356,44.001,-67.43337,-102.79984,79.75453
8.352,0.00491,0.00047,-0.00381,-0.01198,0.03972,-9.82032,37.089,38.083,38.356,43.669,-67.40995,-103.08784,80.02046
8.362,0.00478,0.00042,-0.00376,-0.01440,0.04471,-9.80950,37.089,38.083,38.356,43.890,-67.38597,-103.37594,80.28645
8.372,0.00460,0.00042,-0.00367,-0.04535,0.01595,-9.81109,37.089,38.085,38.356,43.890,-67.36092,-103.66365,80.55202
8.382,0.00460,0.00038,-0.00354,-0.02891,0.03110,-9.81150,37.089,38.085,38.356,43.890,-67.33565,-103.95132,80.81752
8.392,0.00451,0.00042,-0.00349,-0.02039,0.03879,-9.83764,37.089,38.085,38.356,43.890,-67.31000,-104.23769,81.08174
8.402,0.00420,0.00060,-0.00367,0.02679,0.05139,-9.79167,37.089,38.085,38.356,43.890,-67.28438,-104.52386,81.34575
8.412,0.00379,0.00073,-0.00381,-0.02772,0.09292,-9.80941,37.089,38.085,38.356,43.890,-67.25784,-104.80966,81.60935
8.422,0.00379,0.00096,-0.00385,-0.01913,0.03379,-9.84766,37.089,38.085,38.356,43.890,-67.23073,-105.09367,81.87127
8.432,0.00384,0.00100,-0.00398,-0.00362,0.00463,-9.78029,37.089,38.085,38.356,43.890,-67.20318,-105.37679,82.13229
8.442,0.00397,0.00096,-0.00407,-0.02001,0.04975,-9.77578,37.089,38.085,38.356,44.001,-67.17519,-105.65887,82.39230
8.452,0.00402,0.00105,-0.00412,-0.01741,0.04005,-9.81633,37.089,38.085,38.356,43.890,-67.14663,-105.94077,82.65211
8.462,0.00406,0.00131,-0.00412,-0.03342,0.08176,-9.79892,37.089,38.085,38.356,43.890,-67.11756,-106.22247,82.91166
8.472,0.00397,0.00149,-0.00403,-0.06697,0.04870,-9.81337,37.089,38.085,38.352,43.890,-67.08744,-106.50353,83.17059
8.482,0.00397,0.00154,-0.00398,-0.01061,0.01029,-9.78800,37.089,38.085,38.352,43.890,-67.05725,-106.78401,83.42889
8.492,0.00402,0.00154,-0.00403,-0.00166,0.03954,-9.79213,37.089,38.085,38.352,44.001,-67.02677,-107.06406,83.68675
8.502,0.00424,0.00154,-0.00394,-0.01791,0.05078,-9.81880,37.089,38.085,38.352,43.780,-66.99575,-107.34348,83.94398
8.512,0.00411,0.00154,-0.00398,-0.01595,0.04698,-9.81475,37.145,38.085,38.352,44.001,-66.96413,-107.62240,84.20068
8.522,0.00415,0.00176,-0.00407,-0.01061,0.04671,-9.79743,37.145,38.085,38.352,43.890,-66.93210,-107.90078,84.45684
8.532,0.00424,0.00198,-0.00407,-0.00966,0.06742,-9.80518,37.145,38.085,38.352,43.669,-66.89962,-108.17899,84.71275
8.542,0.00433,0.00172,-0.00394,-0.03359,0.00873,-9.82990,37.145,38.085,38.352,43.669,-66.86620,-108.45553,84.96709
8.552,0.00415,0.00154,-0.00381,-0.02688,0.04960,-9.79511,37.145,38.085,38.352,44.001,-66.83257,-108.73159,85.22091
8.562,0.00393,0.00149,-0.00363,-0.01712,0.07808,-9.80607,37.145,38.085,38.352,43.890,-66.79857,-109.00747,85.47451
8.572,0.00402,0.00148,-0.00358,0.02193,0.05645,-9.75231,37.145,38.121,38.352,43.890,-66.76466,-109.28133,85.72619
8.582,0.00406,0.00143,-0.00363,0.02640,0.05709,-9.80778,37.145,38.121,38.352,43.890,-66.73019,-109.55507,85.97769
8.592,0.00393,0.00139,-0.00358,0.01246,0.02281,-9.79640,37.145,38.121,38.352,43.890,-66.69499,-109.82804,86.22842
8.602,0.00411,0.00108,-0.00358,-0.00167,0.04829,-9.81550,37.145,38.121,38.352,43.890,-66.65919,-110.10031,86.47845
8.612,0.00429,0.00072,-0.00349,-0.01218,0.03235,-9.84240,37.145,38.121,38.352,43.890,-66.62292,-110.37090,86.72685
8.622,0.00433,0.00063,-0.00349,-0.02106,0.05041,-9.80393,37.145,38.121,38.352,43.890,-66.58609,-110.64122,86.97495
8.632,0.00406,0.00063,-0.00354,0.02551,0.06288,-9.79455,37.145,38.121,38.352,43.890,-66.54926,-110.91124,87.22272
8.642,0.00411,0.00059,-0.00358,0.01817,0.06279,-9.79578,37.145,38.121,38.352,43.890,-66.51192,-111.18055,87.46975
8.652,0.00389,0.00059,-0.00363,0.00711,0.03677,-9.84997,37.145,38.121,38.352,43.669,-66.47398,-111.44771,87.71474
8.662,0.00389,0.00054,-0.00358,0.00689,0.01002,-9.81405,37.145,38.121,38.352,43.890,-66.43550,-111.71445,87.95929
8.672,0.00402,0.00050,-0.00358,-0.02100,0.05493,-9.83009,37.145,38.121,38.357,44.001,-66.39651,-111.98008,88.20274
8.682,0.00393,0.00045,-0.00363,-0.03634,0.06941,-9.80651,37.145,38.121,38.357,43.890,-66.35681,-112.24531,88.44574
8.692,0.00420,0.00045,-0.00372,-0.02601,-0.02294,-9.79955,37.145,38.121,38.357,43.890,-66.31635,-112.50977,88.68796
8.702,0.00406,0.00050,-0.00376,0.01279,0.04643,-9.84879,37.145,38.121,38.357,43.890,-66.27631,-112.77304,88.92905
8.712,0.00406,0.00050,-0.00381,0.01728,0.01968,-9.83014,37.145,38.121,38.357,44.222,-66.23577,-113.03522,89.16904
8.722,0.00406,0.00063,-0.00376,-0.04519,0.07119,-9.81903,37.182,38.121,38.357,43.669,-66.19430,-113.29636,89.40799
8.732,0.00393,0.00081,-0.00376,-0.05122,0.03229,-9.83895,37.182,38.121,38.357,43.890,-66.15228,-113.55598,89.64547
8.742,0.00384,0.00081,-0.00390,-0.02838,0.02035,-9.81506,37.182,38.121,38.357,43.890,-66.10995,-113.81535,89.88267
8.752,0.00375,0.00076,-0.00394,-0.01638,0.01857,-9.81621,37.182,38.121,38.357,43.780,-66.06728,-114.07430,90.11942
8.762,0.00393,0.00068,-0.00403,-0.01789,0.00445,-9.78558,37.182,38.121,38.357,43.890,-66.02406,-114.33212,90.35503
8.772,0.00375,0.00066,-0.00403,0.03571,0.03024,-9.83373,37.182,38.169,38.357,43.890,-65.98113,-114.58938,90.59005
8.782,0.00384,0.00061,-0.00398,0.01477,0.03691,-9.83265,37.182,38.169,38.357,43.780,-65.93759,-114.84537,90.82382
8.792,0.00398,0.00079,-0.00403,0.02799,0.05023,-9.79769,37.182,38.169,38.357,43.890,-65.89381,-115.10112,91.05733
8.802,0.00389,0.00119,-0.00416,0.01587,0.00206,-9.81357,37.182,38.169,38.357,44.001,-65.84919,-115.35605,91.28997
8.812,0.00397,0.00133,-0.00425,-0.02255,0.02800,-9.84483,37.182,38.169,38.357,43.780,-65.80399,-115.60902,91.52076
8.822,0.00366,0.00133,-0.00416,-0.01233,0.06432,-9.80598,37.182,38.169,38.357,43.890,-65.75856,-115.86215,91.75161
8.832,0.00366,0.00133,-0.00412,0.03775,0.02905,-9.85463,37.182,38.169,38.357,43.890,-65.71318,-116.11362,91.98086
8.842,0.00371,0.00137,-0.00398,-0.05638,0.02854,-9.79593,37.182,38.169,38.357,43.890,-65.66642,-116.36361,92.20868
8.852,0.00380,0.00142,-0.00403,-0.03114,0.05337,-9.80238,37.182,38.169,38.357,44.001,-65.61948,-116.61366,92.43645
8.862,0.00388,0.00155,-0.00412,0.01966,-0.01829,-9.83194,37.182,38.169,38.357,43.890,-65.57241,-116.86276,92.66331
8.872,0.00393,0.00142,-0.00403,0.00916,0.05031,-9.82270,37.182,38.169,38.358,43.890,-65.52505,-117.11114,92.88940
8.882,0.00384,0.00124,-0.00394,0.00384,0.07178,-9.81238,37.182,38.169,38.358,43.890,-65.47731,-117.35919,93.11512
8.892,0.00380,0.00106,-0.00390,-0.04223,0.04517,-9.80681,37.182,38.169,38.358,43.890,-65.42847,-117.60615,93.33975
8.902,0.00393,0.00092,-0.00385,-0.02270,0.04819,-9.77337,37.182,38.169,38.358,43.890,-65.37959,-117.85175,93.56309
8.912,0.00411,0.00093,-0.00385,-0.00497,0.07086,-9.82769,37.182,38.169,38.358,43.890,-65.33057,-118.09660,93.78562
8.922,0.00397,0.00097,-0.00381,-0.01725,0.01445,-9.78161,37.187,38.169,38.358,43.890,-65.28085,-118.33981,94.00657
8.932,0.00393,0.00061,-0.00385,0.02313,0.03940,-9.80610,37.187,38.169,38.358,43.780,-65.23112,-118.58337,94.22780
8.942,0.00407,0.00012,-0.00390,-0.01152,0.05594,-9.78985,37.187,38.169,38.358,44.001,-65.18079,-118.82565,94.44775
8.952,0.00416,-0.00005,-0.00394,-0.02838,0.02150,-9.81789,37.187,38.169,38.358,43.890,-65.12965,-119.06674,94.66653
8.962,0.00416,-0.00023,-0.00390,0.01618,0.00403,-9.79991,37.187,38.169,38.358,44.001,-65.07848,-119.30762,94.88504
8.972,0.00420,-0.00037,-0.00385,0.03677,0.03490,-9.82169,37.187,38.170,38.358,43.780,-65.02728,-119.54796,95.10295
8.982,0.00398,-0.00037,-0.00381,-0.04923,0.10200,-9.77176,37.187,38.170,38.358,43.780,-64.97525,-119.78589,95.31863
8.992,0.00393,-0.00046,-0.00372,-0.01785,0.05864,-9.76335,37.187,38.170,38.358,43.780,-64.92317,-120.02235,95.53285
9.002,0.00398,-0.00046,-0.00372,-0.00408,0.06203,-9.83126,37.187,38.170,38.358,43.890,-64.87086,-120.25797,95.74623
9.012,0.00407,-0.00046,-0.00376,0.00353,0.00647,-9.83214,37.187,38.170,38.358,44.001,-64.81805,-120.49243,95.95847
9.022,0.00402,-0.00028,-0.00394,0.00062,0.05823,-9.83524,37.187,38.170,38.358,43.890,-64.76508,-120.72604,96.16983
9.032,0.00398,-0.00014,-0.00407,-0.03782,0.05414,-9.77829,37.187,38.170,38.358,43.669,-64.71140,-120.95811,96.37973
9.042,0.00371,-0.00010,-0.00412,-0.05898,-0.01142,-9.80056,37.187,38.170,38.358,43.890,-64.65675,-121.18928,96.58869
9.052,0.00353,-0.00010,-0.00398,0.01782,0.01842,-9.86511,37.187,38.170,38.358,43.890,-64.60284,-121.41954,96.79675
9.062,0.00358,-0.00001,-0.00381,0.04663,0.02687,-9.84814,37.187,38.170,38.358,43.890,-64.54900,-121.64884,97.00385
9.072,0.00353,0.00021,-0.00380,0.00554,0.05380,-9.79941,37.187,38.170,38.351,43.890,-64.49438,-121.87764,97.21041
9.082,0.00358,0.00034,-0.00394,0.00544,0.06225,-9.79785,37.187,38.170,38.351,43.559,-64.43923,-122.10606,97.41653
9.092,0.00371,0.00057,-0.00403,0.00314,0.04966,-9.76723,37.187,38.170,38.351,43.890,-64.38376,-122.33298,97.62117
9.102,0.00380,0.00070,-0.00412,0.01459,0.04504,-9.81259,37.187,38.170,38.351,43.890,-64.32794,-122.55973,97.82561
9.112,0.00402,0.00079,-0.00412,0.00193,0.03608,-9.80858,37.187,38.170,38.351,43.890,-64.27143,-122.78599,98.02948
9.122,0.00402,0.00119,-0.00403,0.03740,0.04148,-9.80765,37.198,38.170,38.351,43.890,-64.21486,-123.01231,98.23332
9.132,0.00380,0.00168,-0.00394,0.03267,0.01534,-9.80432,37.198,38.170,38.351,43.780,-64.15761,-123.23787,98.43636
9.142,0.00388,0.00186,-0.00389,-0.01562,0.01820,-9.81299,37.198,38.170,38.351,43.780,-64.09957,-123.46205,98.63805
9.152,0.00379,0.00182,-0.00363,-0.01602,0.02734,-9.83555,37.198,38.170,38.351,43.890,-64.04136,-123.68485,98.83841
9.162,0.00370,0.00186,-0.00345,-0.03833,0.04404,-9.81282,37.198,38.170,38.351,43.890,-63.98265,-123.90678,99.03791
9.172,0.00397,0.00192,-0.00336,-0.04811,0.01558,-9.79623,37.198,38.124,38.351,43.890,-63.92328,-124.12752,99.23622
9.182,0.00411,0.00206,-0.00340,0.00337,0.05176,-9.82836,37.198,38.124,38.351,43.890,-63.86433,-124.34794,99.43414
9.192,0.00424,0.00250,-0.00345,-0.02047,0.06920,-9.81167,37.198,38.124,38.351,43.669,-63.80484,-124.56747,99.63119
9.202,0.00415,0.00246,-0.00331,0.02267,0.04059,-9.79364,37.198,38.124,38.351,43.890,-63.74526,-124.78652,99.82765
9.212,0.00433,0.00219,-0.00318,0.00067,0.04488,-9.81024,37.198,38.124,38.351,43.890,-63.68513,-125.00462,100.02320
9.222,0.00402,0.00192,-0.00318,-0.00939,0.03641,-9.78370,37.198,38.124,38.351,43.890,-63.62461,-125.22122,100.21729
9.232,0.00370,0.00183,-0.00322,0.00045,0.02612,-9.79647,37.198,38.124,38.351,43.669,-63.56382,-125.43711,100.41064
9.242,0.00379,0.00188,-0.00327,-0.04014,0.06210,-9.80126,37.198,38.124,38.351,44.001,-63.50240,-125.65190,100.60292
9.252,0.00384,0.00201,-0.00336,-0.04243,0.02258,-9.78780,37.198,38.124,38.351,43.890,-63.44053,-125.86528,100.79382
9.262,0.00424,0.00197,-0.00345,0.01741,0.03661,-9.81816,37.198,38.124,38.351,43.890,-63.37898,-126.07868,100.98465
9.272,0.00402,0.00165,-0.00349,-0.02903,0.04641,-9.82525,37.198,38.124,38.358,43.890,-63.31678,-126.29047,101.17392
9.282,0.00411,0.00157,-0.00358,-0.00689,0.03934,-9.83517,37.198,38.124,38.358,43.890,-63.25452,-126.50111,101.36209
9.292,0.00397,0.00143,-0.00363,-0.04643,0.04318,-9.81285,37.198,38.124,38.358,43.890,-63.19157,-126.71064,101.54914
9.302,0.00402,0.00125,-0.00363,-0.00174,0.02219,-9.81657,37.198,38.124,38.358,43.669,-63.12855,-126.91986,101.73582
9.312,0.00366,0.00121,-0.00367,-0.00483,0.07828,-9.78913,37.198,38.124,38.358,43.780,-63.06546,-127.12834,101.92174
9.322,0.00348,0.00130,-0.00363,-0.00731,0.03480,-9.81425,37.128,38.124,38.358,43.780,-63.00181,-127.33582,102.10664
9.332,0.00353,0.00139,-0.00363,0.01835,0.02128,-9.81366,37.128,38.124,38.358,43.890,-62.93801,-127.54284,102.29105
9.342,0.00313,0.00116,-0.00363,-0.01063,0.02247,-9.81660,37.128,38.124,38.358,43.890,-62.87360,-127.74862,102.47424
9.352,0.00317,0.00103,-0.00349,-0.04666,0.05856,-9.80288,37.128,38.124,38.358,43.890,-62.80869,-127.95343,102.65648
9.362,0.00348,0.00094,-0.00349,0.00403,0.05224,-9.80383,37.128,38.124,38.358,44.001,-62.74381,-128.15820,102.83854
9.372,0.00344,0.00077,-0.00340,-0.02031,0.01857,-9.80135,37.128,38.108,38.358,43.890,-62.67826,-128.36160,103.01932
9.382,0.00335,0.00072,-0.00340,0.00733,0.06915,-9.80833,37.128,38.108,38.358,43.890,-62.61284,-128.56499,103.19996
9.392,0.00313,0.00077,-0.00345,-0.01559,0.04549,-9.80268,37.128,38.108,38.358,43.890,-62.54679,-128.76709,103.37936
9.402,0.00326,0.00063,-0.00349,0.00362,0.01659,-9.78796,37.128,38.108,38.358,43.890,-62.48060,-128.96802,103.55759
9.412,0.00308,0.00045,-0.00345,-0.01214,0.03262,-9.75997,37.128,38.108,38.358,44.001,-62.41438,-129.16692,103.73394
9.422,0.00326,0.00037,-0.00354,0.03526,0.06177,-9.81540,37.128,38.108,38.358,43.780,-62.34840,-129.36601,103.91035
9.432,0.00304,0.00045,-0.00371,-0.02679,0.06961,-9.77953,37.128,38.108,38.358,44.001,-62.28168,-129.56300,104.08480
9.442,0.00335,0.00050,-0.00385,0.00167,0.04845,-9.78090,37.128,38.108,38.358,43.890,-62.21494,-129.75923,104.25846
9.452,0.00340,0.00059,-0.00403,0.05043,0.02620,-9.83123,37.128,38.108,38.358,44.001,-62.14830,-129.95497,104.43156
9.462,0.00344,0.00077,-0.00407,-0.03512,0.06368,-9.80487,37.128,38.108,38.358,43.890,-62.08065,-130.14940,104.60341
9.472,0.00362,0.00117,-0.00412,0.01352,0.01080,-9.83172,37.128,38.108,38.360,43.890,-62.01300,-130.34306,104.77448
9.482,0.00371,0.00144,-0.00421,-0.01297,0.05128,-9.80109,37.128,38.108,38.360,43.890,-61.94486,-130.53603,104.94482
9.492,0.00353,0.00148,-0.00412,-0.05819,0.04774,-9.78559,37.128,38.108,38.360,43.890,-61.87614,-130.72737,105.11363
9.502,0.00339,0.00153,-0.00416,-0.03196,0.00564,-9.84154,37.128,38.108,38.360,43.890,-61.80737,-130.91751,105.28126
9.512,0.00362,0.00153,-0.00416,-0.01678,0.05158,-9.81277,37.128,38.108,38.360,43.890,-61.73854,-131.10765,105.44878
9.522,0.00344,0.00166,-0.00412,-0.01215,0.07362,-9.78070,37.185,38.108,38.360,43.669,-61.66959,-131.29689,105.61540
9.532,0.00344,0.00179,-0.00412,0.01284,0.09529,-9.81367,37.185,38.108,38.360,44.001,-61.60062,-131.48610,105.78188
9.542,0.00362,0.00144,-0.00416,-0.02619,0.02960,-9.81189,37.185,38.108,38.360,43.890,-61.53067,-131.67380,105.94691
9.552,0.00380,0.00122,-0.00412,-0.02093,0.08331,-9.83547,37.185,38.108,38.360,43.890,-61.46085,-131.86066,106.11113
9.562,0.00389,0.00104,-0.00403,-0.00125,0.07976,-9.81928,37.185,38.108,38.360,44.001,-61.39090,-132.04710,106.27487
9.572,0.00389,0.00089,-0.00398,-0.00907,-0.01053,-9.82004,37.185,38.137,38.360,43.890,-61.32027,-132.23210,106.43723
9.582,0.00402,0.00080,-0.00390,-0.04802,-0.02624,-9.79319,37.185,38.137,38.360,43.780,-61.24896,-132.41568,106.59822
9.592,0.00402,0.00089,-0.00385,-0.01115,0.05938,-9.79589,37.185,38.137,38.360,43.890,-61.17803,-132.59962,106.75945
9.602,0.00415,0.00058,-0.00385,-0.00657,0.02114,-9.76793,37.185,38.137,38.360,43.780,-61.10695,-132.78198,106.91915
9.612,0.00424,0.00027,-0.00394,-0.01990,0.04548,-9.78862,37.185,38.137,38.360,44.111,-61.03556,-132.96346,107.07798
9.622,0.00429,0.00027,-0.00403,0.01889,0.02946,-9.78073,37.185,38.137,38.360,43.890,-60.96432,-133.14447,107.23633
9.632,0.00438,0.00031,-0.00403,-0.06058,0.02998,-9.81003,37.185,38.137,38.360,43.890,-60.89197,-133.32387,107.39312
9.642,0.00420,0.00031,-0.00394,-0.03462,0.02185,-9.80545,37.185,38.137,38.360,43.890,-60.81941,-133.50317,107.54974
9.652,0.00442,0.00045,-0.00390,-0.02317,0.04034,-9.82359,37.185,38.137,38.360,44.001,-60.74683,-133.68192,107.70575
9.662,0.00460,0.00058,-0.00376,-0.01548,0.04008,-9.81391,37.185,38.137,38.360,43.890,-60.67398,-133.86008,107.86114
9.672,0.00460,0.00063,-0.00372,0.01501,0.03361,-9.78841,37.185,38.137,38.355,43.780,-60.60120,-134.03778,108.01602
9.682,0.00455,0.00058,-0.00372,0.00050,0.05186,-9.78897,37.185,38.137,38.355,43.780,-60.52818,-134.21446,108.16990
9.692,0.00464,0.00058,-0.00367,-0.00566,-0.00054,-9.83054,37.185,38.137,38.355,43.890,-60.45473,-134.38974,108.32244
9.702,0.00473,0.00063,-0.00358,-0.03224,0.04874,-9.80518,37.185,38.137,38.355,43.890,-60.38092,-134.56453,108.47446
9.712,0.00460,0.00072,-0.00354,0.00541,0.04143,-9.82628,37.185,38.137,38.355,43.890,-60.30717,-134.73882,108.62592
9.722,0.00460,0.00080,-0.00349,-0.03791,0.03831,-9.80515,37.181,38.137,38.355,43.890,-60.23269,-134.91200,108.77630
9.732,0.00464,0.00080,-0.00345,0.00736,0.06646,-9.80832,37.181,38.137,38.355,43.890,-60.15842,-135.08551,108.92688
9.742,0.00469,0.00058,-0.00340,0.00478,0.05797,-9.81230,37.181,38.137,38.355,43.890,-60.08377,-135.25821,109.07661
9.752,0.00473,0.00036,-0.00340,-0.00279,0.07974,-9.81929,37.181,38.137,38.355,43.890,-60.00901,-135.43008,109.22556
9.762,0.00500,0.00023,-0.00345,-0.01941,0.04389,-9.80872,37.181,38.137,38.355,44.001,-59.93361,-135.60086,109.37344
9.772,0.00496,0.00023,-0.00354,-0.01067,0.06912,-9.75292,37.181,38.138,38.355,43.890,-59.85865,-135.77017,109.51992
9.782,0.00478,0.00018,-0.00358,0.02698,0.05124,-9.83670,37.181,38.138,38.355,43.890,-59.78383,-135.93887,109.66574
9.792,0.00460,0.00036,-0.00349,0.00669,0.05497,-9.79901,37.181,38.138,38.355,43.890,-59.70850,-136.10680,109.81081
9.802,0.00464,0.00076,-0.00345,0.00823,0.05233,-9.79135,37.181,38.138,38.355,43.890,-59.63298,-136.27405,109.95518
9.812,0.00446,0.00107,-0.00340,0.00075,0.02885,-9.78483,37.181,38.138,38.355,44.001,-59.55714,-136.44017,110.09846
9.822,0.00455,0.00116,-0.00336,-0.01603,0.02735,-9.83274,37.181,38.138,38.355,43.890,-59.48102,-136.60510,110.24059
9.832,0.00451,0.00116,-0.00331,-0.01290,0.04933,-9.81073,37.181,38.138,38.355,44.001,-59.40467,-136.76982,110.38245
9.842,0.00446,0.00111,-0.00331,0.03925,0.05221,-9.81855,37.181,38.138,38.355,43.890,-59.32848,-136.93468,110.52428
9.852,0.00455,0.00125,-0.00340,0.04113,0.04772,-9.79158,37.181,38.138,38.355,43.780,-59.25208,-137.09886,110.66544
9.862,0.00442,0.00147,-0.00349,-0.01651,0.08354,-9.78238,37.181,38.138,38.355,43.890,-59.17523,-137.26140,110.80508
9.872,0.00451,0.00152,-0.00354,-0.01411,0.04327,-9.78135,37.181,38.138,38.360,43.890,-59.09813,-137.42288,110.94370
9.882,0.00442,0.00152,-0.00358,-0.02542,0.03266,-9.81873,37.181,38.138,38.360,43.890,-59.02060,-137.58353,111.08147
9.892,0.00415,0.00147,-0.00354,-0.03440,0.04175,-9.82244,37.181,38.138,38.360,43.890,-58.94286,-137.74338,111.21847
9.902,0.00429,0.00134,-0.00354,-0.01119,0.03249,-9.80420,37.181,38.138,38.360,43.890,-58.86491,-137.90314,111.35527
9.912,0.00429,0.00125,-0.00358,-0.01731,0.03047,-9.81185,37.181,38.138,38.360,43.890,-58.78661,-138.06226,111.49142
9.922,0.00429,0.00129,-0.00376,-0.04179,0.03714,-9.79712,37.180,38.138,38.360,43.890,-58.70790,-138.22037,111.62658
9.932,0.00420,0.00103,-0.00390,-0.01557,0.04775,-9.81556,37.180,38.138,38.360,43.890,-58.62921,-138.37830,111.76147
9.942,0.00429,0.00063,-0.00394,-0.02322,-0.00214,-9.78638,37.180,38.138,38.360,43.890,-58.55021,-138.53491,111.89515
9.952,0.00389,0.00054,-0.00407,-0.04036,0.05550,-9.82254,37.180,38.138,38.360,44.001,-58.47110,-138.69081,112.02808
9.962,0.00384,0.00049,-0.00416,0.04457,0.01744,-9.79181,37.180,38.138,38.360,43.890,-58.39240,-138.84711,112.16125
9.972,0.00407,0.00046,-0.00412,-0.01896,0.03129,-9.78975,37.180,38.097,38.360,43.890,-58.31304,-139.00172,112.29288
9.982,0.00402,0.00037,-0.00407,-0.02995,0.04803,-9.79632,37.180,38.097,38.360,43.890,-58.23346,-139.15569,112.42385
9.992,0.00389,0.00033,-0.00394,-0.01115,0.06622,-9.81603,37.180,38.097,38.360,43.890,-58.15382,-139.30942,112.55447
10.002,0.00353,0.00019,-0.00381,-0.03281,0.04249,-9.83570,37.180,38.097,38.360,43.780,-58.07391,-139.46164,112.68373
10.012,0.00358,0.00006,-0.00358,0.03666,0.05362,-9.84913,37.180,38.097,38.360,44.001,-57.99474,-139.61380,112.81284
10.022,0.00349,0.00001,-0.00358,0.01136,0.03530,-9.84472,37.180,38.097,38.360,43.890,-57.91528,-139.76443,112.94052
10.032,0.00362,0.00006,-0.00363,-0.00856,0.02885,-9.86809,37.180,38.097,38.360,43.890,-57.83588,-139.91339,113.06670
10.042,0.00371,0.00015,-0.00358,-0.04215,0.01742,-9.84044,37.180,38.097,38.360,43.890,-57.75598,-140.06104,113.19163
10.052,0.00380,0.00028,-0.00363,0.02193,0.01364,-9.81722,37.180,38.097,38.360,43.890,-57.67619,-140.20943,113.31709
10.062,0.00393,0.00042,-0.00354,-0.02803,0.05757,-9.81928,37.180,38.097,38.360,44.001,-57.59582,-140.35695,113.44169
10.072,0.00389,0.00042,-0.00340,-0.03994,-0.00482,-9.84473,37.180,38.097,38.358,44.001,-57.51512,-140.50304,113.56499
10.082,0.00406,0.00033,-0.00331,-0.05133,0.03238,-9.81242,37.180,38.097,38.358,43.890,-57.43399,-140.64890,113.68799
10.092,0.00411,0.00033,-0.00331,-0.02207,0.04458,-9.82320,37.180,38.097,38.358,43.890,-57.35295,-140.79480,113.81090
10.102,0.00406,0.00037,-0.00336,-0.00663,0.04211,-9.81106,37.180,38.097,38.358,43.890,-57.27167,-140.94066,113.93365
10.112,0.00415,0.00055,-0.00345,-0.02469,0.00540,-9.82422,37.180,38.097,38.358,43.890,-57.18992,-141.08531,114.05531
10.122,0.00415,0.00086,-0.00363,0.00643,0.05524,-9.83198,37.123,38.097,38.358,44.001,-57.10852,-141.23003,114.17687
10.132,0.00442,0.00135,-0.00367,0.01425,0.02826,-9.77753,37.123,38.097,38.358,43.890,-57.02703,-141.37389,114.29762
10.142,0.00424,0.00153,-0.00381,0.00413,0.05597,-9.83602,37.123,38.097,38.358,44.111,-56.94546,-141.51695,114.41756
10.152,0.00442,0.00158,-0.00381,-0.02193,0.06873,-9.83137,37.123,38.097,38.358,43.890,-56.86357,-141.65904,114.53660
10.162,0.00437,0.00167,-0.00385,-0.05558,0.02967,-9.80478,37.123,38.097,38.358,43.669,-56.78090,-141.80017,114.65471
10.172,0.00455,0.00170,-0.00399,-0.01110,-0.00097,-9.82292,37.123,38.132,38.358,43.890,-56.69828,-141.94119,114.77264
10.182,0.00433,0.00165,-0.00399,0.03124,0.03151,-9.78431,37.123,38.132,38.358,44.001,-56.61602,-142.08246,114.89064
10.192,0.00419,0.00165,-0.00399,-0.03424,0.02566,-9.81471,37.123,38.132,38.358,43.890,-56.53289,-142.22220,115.00727
10.202,0.00442,0.00152,-0.00416,0.04402,0.06235,-9.78522,37.123,38.132,38.358,43.890,-56.45043,-142.36275,115.12445
10.212,0.00424,0.00139,-0.00430,0.00442,0.04844,-9.79376,37.123,38.132,38.358,44.001,-56.36738,-142.50206,115.24049
10.222,0.00420,0.00130,-0.00430,-0.01090,0.04702,-9.82035,37.123,38.132,38.358,43.890,-56.28399,-142.64055,115.35572
10.232,0.00393,0.00116,-0.00430,-0.00848,0.03746,-9.81788,37.123,38.132,38.358,44.001,-56.20041,-142.77850,115.47041
10.242,0.00402,0.00098,-0.00416,0.03366,0.06674,-9.81423,37.123,38.132,38.358,43.890,-56.11703,-142.91687,115.58535
10.252,0.00406,0.00085,-0.00399,-0.04072,0.00954,-9.79134,37.123,38.132,38.358,43.890,-56.03272,-143.05305,115.69835
10.262,0.00402,0.00045,-0.00390,-0.01971,0.03583,-9.80827,37.123,38.132,38.358,44.001,-55.94836,-143.18938,115.81135
10.272,0.00424,0.00018,-0.00385,-0.04137,0.04929,-9.83940,37.123,38.132,38.361,43.780,-55.86399,-143.32446,115.92323
10.282,0.00415,0.00018,-0.00367,0.02884,0.04942,-9.81376,37.123,38.132,38.361,43.890,-55.77992,-143.46022,116.03555
10.292,0.00393,0.00014,-0.00349,0.00171,0.01731,-9.79682,37.123,38.132,38.361,44.001,-55.69532,-143.59483,116.14680
10.302,0.00371,0.00013,-0.00345,0.00664,0.09333,-9.80323,37.123,38.132,38.361,44.001,-55.61078,-143.72961,116.25810
10.312,0.00402,0.00022,-0.00349,0.02870,0.03211,-9.82573,37.123,38.132,38.361,43.890,-55.52615,-143.86365,116.36867
10.322,0.00415,0.00031,-0.00354,0.01137,0.05042,-9.79856,37.134,38.132,38.361,43.890,-55.44122,-143.99701,116.47854
10.332,0.00393,0.00031,-0.00349,-0.04043,0.05746,-9.80928,37.134,38.132,38.361,43.890,-55.35567,-144.12923,116.58737
10.342,0.00402,0.00022,-0.00336,-0.01407,0.02659,-9.83715,37.134,38.132,38.361,43.890,-55.27031,-144.26068,116.69548
10.352,0.00402,0.00013,-0.00331,-0.05418,0.02265,-9.84173,37.134,38.132,38.361,43.890,-55.18473,-144.39056,116.80219
10.362,0.00424,0.00022,-0.00332,-0.05133,0.02705,-9.79832,37.134,38.132,38.361,43.890,-55.09891,-144.52016,116.90852
10.372,0.00397,0.00027,-0.00336,-0.03594,0.03527,-9.80472,37.134,38.121,38.361,44.001,-55.01297,-144.64972,117.01475
10.382,0.00411,0.00041,-0.00345,-0.00010,0.03613,-9.78608,37.134,38.121,38.361,43.890,-54.92723,-144.77917,117.12077
10.392,0.00411,0.00050,-0.00349,0.04502,0.03747,-9.77020,37.134,38.121,38.361,43.669,-54.84199,-144.90848,117.22654
10.402,0.00397,0.00041,-0.00354,0.00151,0.03077,-9.78604,37.134,38.121,38.361,44.001,-54.75624,-145.03645,117.33109
10.412,0.00411,0.00032,-0.00376,-0.00589,0.03986,-9.79698,37.134,38.121,38.361,43.780,-54.67021,-145.16399,117.43521
10.422,0.00411,0.00023,-0.00394,-0.02817,0.03152,-9.80587,37.134,38.121,38.361,43.669,-54.58364,-145.29082,117.53864
10.432,0.00415,0.00010,-0.00385,-0.02694,0.05573,-9.79876,37.134,38.121,38.361,44.001,-54.49700,-145.41747,117.64182
10.442,0.00393,-0.00008,-0.00376,0.00967,0.03311,-9.80411,37.134,38.121,38.361,43.890,-54.41028,-145.54413,117.74487
10.452,0.00357,-0.00008,-0.00372,-0.03087,0.05993,-9.79357,37.134,38.121,38.361,43.780,-54.32324,-145.66982,117.84702
10.462,0.00380,0.00014,-0.00376,-0.03268,0.01882,-9.79899,37.134,38.121,38.361,43.890,-54.23587,-145.79468,117.94839
10.472,0.00362,0.00041,-0.00390,0.00893,0.05999,-9.79621,37.134,38.121,38.369,44.111,-54.14886,-145.91995,118.05001
10.482,0.00348,0.00067,-0.00385,-0.03220,0.01419,-9.80942,37.134,38.121,38.369,44.001,-54.06113,-146.04388,118.15041
10.492,0.00339,0.00076,-0.00376,0.00657,0.06191,-9.79020,37.134,38.121,38.369,43.890,-53.97382,-146.16811,118.25093
10.502,0.00339,0.00094,-0.00372,-0.04358,0.03435,-9.82325,37.134,38.121,38.369,43.890,-53.88600,-146.29070,118.35002
10.512,0.00339,0.00125,-0.00363,0.01683,-0.00416,-9.84127,37.134,38.121,38.369,43.890,-53.79864,-146.41315,118.44887
10.522,0.00335,0.00156,-0.00372,0.03551,0.06987,-9.80459,37.182,38.121,38.369,44.001,-53.71141,-146.53612,118.54804
10.532,0.00357,0.00157,-0.00381,-0.00505,0.05731,-9.86300,37.182,38.121,38.369,43.890,-53.62416,-146.65715,118.64552
10.542,0.00357,0.00148,-0.00385,0.01367,0.05198,-9.79776,37.182,38.121,38.369,43.890,-53.53677,-146.77815,118.74290
10.552,0.00357,0.00152,-0.00376,-0.03373,0.01226,-9.80660,37.182,38.121,38.369,43.890,-53.44854,-146.89796,118.83919
10.562,0.00366,0.00161,-0.00376,0.03175,0.00032,-9.81751,37.182,38.121,38.369,44.001,-53.36064,-147.01833,118.93584
10.572,0.00362,0.00182,-0.00372,-0.03984,0.00491,-9.80378,37.182,38.146,38.369,43.890,-53.27188,-147.13722,119.03116
