#2025/09/15 16:30:37
# data rotate to sensor frame
time,wx,wy,wz,ax,ay,az,T,pitch,roll,yaw
0.014,0.00509,0.00097,-0.00025,-0.02904,0.02390,9.74194,37.350,38.393,38.539,44.332,-0.05144,0.04587,-0.00024
0.024,0.00531,0.00092,-0.00011,-0.00986,-0.01639,9.79612,37.350,38.393,38.539,44.111,0.04097,-0.01913,-0.00023
0.034,0.00526,0.00088,-0.00016,0.04428,-0.00364,9.74804,37.350,38.393,38.539,44.222,0.03305,0.09304,-0.00016
0.044,0.00535,0.00092,-0.00016,-0.00955,0.00650,9.75097,37.350,38.393,38.539,44.332,-0.01528,-0.00808,-0.00018
0.054,0.00540,0.00052,-0.00016,-0.00366,-0.01443,9.78689,37.350,38.393,38.539,44.443,0.09593,-0.02298,-0.00019
0.064,0.00544,0.00017,-0.00007,0.03384,0.01480,9.79011,37.350,38.393,38.539,44.332,0.02426,0.06373,-0.00010
0.074,0.00553,0.00052,-0.00007,-0.01968,0.00454,9.77667,37.387,38.393,38.539,44.332,-0.00653,-0.04442,-0.00012
0.084,0.00544,0.00088,0.00007,-0.00518,0.04470,9.79823,37.387,38.393,38.539,44.332,-0.11914,-0.03818,-0.00012
0.094,0.00589,0.00102,-0.00007,0.00469,0.01849,9.72966,37.387,38.393,38.539,44.332,-0.10193,0.07244,-0.00034
0.104,0.00593,0.00115,-0.00020,0.03991,-0.02861,9.75458,37.387,38.393,38.539,44.332,-0.00620,0.12990,-0.00039
0.114,0.00607,0.00106,-0.00002,0.01108,-0.01886,9.78617,37.387,38.393,38.539,44.332,0.09153,0.07535,-0.00043
0.124,0.00607,0.00097,0.00020,0.01695,0.01795,9.75544,37.387,38.381,38.539,44.001,-0.01941,0.08897,-0.00043
0.134,0.00616,0.00098,0.00007,-0.00354,-0.01946,9.77284,37.387,38.381,38.539,44.332,0.06688,0.01798,-0.00045
0.144,0.00660,0.00089,-0.00003,0.01563,-0.01266,9.78817,37.387,38.381,38.539,44.222,0.07781,0.12949,-0.00031
0.154,0.00665,0.00080,-0.00020,0.04759,0.03601,9.77036,37.387,38.381,38.539,44.332,-0.02173,0.18097,-0.00029
0.164,0.00674,0.00067,-0.00029,-0.00975,0.05144,9.76360,37.387,38.381,38.539,44.222,-0.10703,0.10850,-0.00020
0.174,0.00678,0.00053,-0.00034,-0.01382,0.00608,9.75658,37.387,38.381,38.539,44.332,-0.06779,0.00397,-0.00004
0.184,0.00660,0.00049,-0.00047,-0.01337,0.00261,9.75097,37.387,38.381,38.539,44.111,-0.00811,-0.09007,0.00002
0.194,0.00660,0.00027,-0.00065,0.03355,-0.00459,9.72990,37.387,38.381,38.539,44.222,0.00527,0.02002,0.00003
0.204,0.00674,0.00018,-0.00065,0.00266,-0.00952,9.73904,37.387,38.381,38.539,44.332,0.11545,0.01056,0.00002
0.214,0.00683,0.00022,-0.00065,-0.00297,-0.00789,9.78766,37.387,38.381,38.539,44.332,0.01231,-0.03102,-0.00002
0.224,0.00678,0.00022,-0.00052,-0.03953,-0.02287,9.79723,37.387,38.381,38.536,44.222,0.07016,-0.12651,-0.00008
0.234,0.00687,0.00022,-0.00047,0.02091,0.02020,9.72570,37.387,38.381,38.536,44.111,0.00303,-0.03797,-0.00002
0.244,0.00692,0.00031,-0.00056,0.00839,-0.01700,9.77730,37.387,38.381,38.536,44.332,0.08565,0.03657,0.00004
0.254,0.00665,0.00049,-0.00065,-0.00228,0.00625,9.76708,37.387,38.381,38.536,44.332,-0.01753,-0.00552,0.00003
0.264,0.00665,0.00053,-0.00052,-0.00179,0.02093,9.79435,37.387,38.381,38.536,44.222,-0.12930,-0.01080,0.00003
0.274,0.00647,0.00049,-0.00052,0.03955,0.03433,9.75586,37.411,38.381,38.536,44.332,-0.16119,0.09618,-0.00023
0.284,0.00620,0.00044,-0.00038,-0.04424,-0.00804,9.77220,37.411,38.381,38.536,44.222,-0.10479,-0.00019,-0.00000
0.294,0.00629,0.00053,-0.00029,0.00682,0.02626,9.75254,37.411,38.381,38.536,44.332,-0.19132,0.07013,-0.00018
0.304,0.00616,0.00071,-0.00029,-0.00483,-0.01862,9.80057,37.411,38.381,38.536,44.222,-0.08495,0.03525,-0.00010
0.314,0.00642,0.00089,-0.00020,-0.01391,-0.00488,9.80850,37.411,38.381,38.536,44.332,-0.00654,-0.04534,-0.00003
0.324,0.00638,0.00110,-0.00011,-0.01015,0.01046,9.79075,37.411,38.299,38.536,44.222,-0.11570,-0.07343,-0.00001
0.334,0.00620,0.00096,-0.00007,0.00906,-0.03510,9.75850,37.411,38.299,38.536,44.111,-0.01125,-0.03230,-0.00005
0.344,0.00620,0.00083,-0.00007,0.01810,-0.02074,9.77375,37.411,38.299,38.536,44.332,0.06643,0.04870,-0.00002
0.354,0.00598,0.00078,-0.00016,0.01268,-0.00824,9.74310,37.411,38.299,38.536,44.332,0.00257,0.14047,0.00005
0.364,0.00616,0.00069,-0.00025,-0.04996,0.01039,9.79339,37.411,38.299,38.536,44.332,-0.01374,0.02951,0.00005
0.374,0.00607,0.00065,-0.00025,-0.04406,-0.00027,9.79870,37.411,38.299,38.536,44.443,-0.00780,-0.08285,0.00008
0.384,0.00625,0.00043,-0.00025,-0.00464,-0.01268,9.73862,37.411,38.299,38.536,44.443,0.08493,-0.02028,0.00012
0.394,0.00620,0.00029,-0.00016,0.02817,0.01427,9.76355,37.411,38.299,38.536,44.222,0.00968,0.06245,0.00018
0.404,0.00607,0.00029,-0.00007,0.00038,0.00784,9.77472,37.411,38.299,38.536,44.222,-0.06628,-0.01972,0.00023
0.414,0.00616,0.00038,0.00002,0.00227,-0.02055,9.77126,37.411,38.299,38.536,44.443,0.04383,-0.00024,0.00022
0.424,0.00625,0.00038,0.00006,0.01518,0.02076,9.80126,37.411,38.299,38.540,44.332,-0.05513,0.05303,0.00021
0.434,0.00647,0.00034,0.00006,0.01612,-0.01616,9.77331,37.411,38.299,38.540,44.222,0.05302,0.08297,0.00021
0.444,0.00620,0.00043,-0.00002,0.02394,0.00431,9.78651,37.411,38.299,38.540,44.443,-0.03783,0.14928,0.00023
0.454,0.00616,0.00043,0.00002,0.02146,-0.00235,9.75155,37.411,38.299,38.540,44.332,0.06432,0.10337,0.00021
0.464,0.00616,0.00047,-0.00002,0.04886,0.01083,9.81392,37.411,38.299,38.540,44.332,-0.00030,0.19541,0.00027
0.474,0.00611,0.00056,-0.00002,-0.02580,0.02450,9.79784,37.375,38.299,38.540,44.222,-0.04337,0.09121,0.00030
0.484,0.00633,0.00065,-0.00002,-0.02534,0.01570,9.80432,37.375,38.299,38.540,44.222,-0.06584,-0.01961,0.00041
0.494,0.00633,0.00078,0.00002,0.00187,0.01208,9.77592,37.375,38.299,38.540,44.332,-0.08406,0.09181,0.00027
0.504,0.00638,0.00110,-0.00002,-0.01427,0.03495,9.78296,37.375,38.299,38.540,44.443,-0.14808,-0.00121,0.00045
0.514,0.00651,0.00159,-0.00011,-0.01798,0.02832,9.76529,37.375,38.299,38.540,44.222,-0.16738,-0.11215,0.00076
0.524,0.00656,0.00166,-0.00029,0.03088,-0.01872,9.76173,37.375,38.340,38.540,44.222,-0.09031,-0.03054,0.00057
0.534,0.00656,0.00153,-0.00034,0.00154,0.01774,9.74693,37.375,38.340,38.540,44.222,-0.12763,0.07493,0.00037
0.544,0.00656,0.00139,-0.00043,-0.02576,-0.00207,9.77104,37.375,38.340,38.540,44.443,-0.06885,-0.02023,0.00054
0.554,0.00656,0.00135,-0.00047,-0.02108,0.00327,9.74570,37.375,38.340,38.540,44.332,-0.02080,-0.12084,0.00062
0.564,0.00647,0.00131,-0.00043,-0.00133,-0.01479,9.78529,37.375,38.340,38.540,44.222,0.05614,-0.03980,0.00065
0.574,0.00656,0.00144,-0.00034,0.02787,0.03693,9.77067,37.375,38.340,38.540,44.222,-0.03357,0.02700,0.00068
0.584,0.00656,0.00157,-0.00034,-0.01533,0.02915,9.77495,37.375,38.340,38.540,44.332,-0.11883,-0.04552,0.00076
0.594,0.00660,0.00131,-0.00025,0.00193,0.01090,9.76506,37.375,38.340,38.540,44.222,-0.04123,0.03487,0.00066
0.604,0.00651,0.00108,-0.00025,0.03111,0.03305,9.74618,37.375,38.340,38.540,44.332,-0.12140,0.11233,0.00054
0.614,0.00638,0.00090,-0.00034,-0.00532,0.00313,9.76387,37.375,38.340,38.540,44.222,-0.05649,0.02180,0.00069
0.624,0.00634,0.00086,-0.00052,-0.00786,-0.04258,9.76088,37.375,38.340,38.538,44.332,0.05219,-0.00231,0.00070
0.634,0.00625,0.00073,-0.00052,0.01283,-0.00920,9.80181,37.375,38.340,38.538,44.332,0.05441,0.10960,0.00080
0.644,0.00625,0.00068,-0.00034,-0.02493,0.01873,9.79144,37.375,38.340,38.538,44.332,-0.00628,0.01515,0.00077
0.654,0.00625,0.00077,-0.00025,0.02771,0.01431,9.77963,37.375,38.340,38.538,44.332,-0.05869,0.11448,0.00071
0.664,0.00629,0.00068,-0.00025,0.01729,0.01190,9.78362,37.375,38.340,38.538,44.332,-0.13073,0.02816,0.00085
0.674,0.00638,0.00068,-0.00029,0.02722,-0.00759,9.77412,37.422,38.340,38.538,44.332,-0.04092,0.09556,0.00076
0.684,0.00629,0.00059,-0.00034,0.04965,-0.00583,9.76375,37.422,38.340,38.538,44.332,-0.00081,0.20026,0.00071
0.694,0.00629,0.00059,-0.00038,-0.00609,-0.02493,9.75115,37.422,38.340,38.538,44.332,0.05833,0.10541,0.00068
0.704,0.00629,0.00059,-0.00038,0.04660,0.02552,9.85163,37.422,38.340,38.538,44.332,-0.02889,0.17522,0.00070
0.714,0.00625,0.00064,-0.00038,-0.01786,0.00617,9.79757,37.422,38.340,38.538,44.222,-0.03182,0.06313,0.00076
0.724,0.00638,0.00068,-0.00047,0.00029,0.01589,9.77227,37.422,38.337,38.538,44.332,-0.11109,-0.01617,0.00086
0.734,0.00647,0.00068,-0.00056,0.01667,-0.00344,9.78973,37.422,38.337,38.538,44.332,-0.02628,0.05741,0.00077
0.744,0.00669,0.00073,-0.00047,-0.01521,-0.04798,9.77857,37.422,38.337,38.538,44.332,0.07508,0.00906,0.00077
0.754,0.00651,0.00073,-0.00025,0.00861,-0.00243,9.77441,37.422,38.337,38.538,44.443,-0.01781,0.07226,0.00079
0.764,0.00669,0.00068,-0.00016,-0.03661,0.00544,9.75809,37.422,38.337,38.538,44.332,-0.02337,-0.03964,0.00083
0.774,0.00651,0.00068,-0.00029,0.03681,0.01045,9.73989,37.422,38.337,38.538,44.332,-0.03984,0.07069,0.00077
0.784,0.00660,0.00077,-0.00043,0.03773,0.04023,9.80608,37.422,38.337,38.538,44.222,-0.12888,0.13894,0.00068
0.794,0.00656,0.00068,-0.00038,-0.01324,-0.02752,9.80581,37.422,38.337,38.538,44.332,-0.03869,0.07155,0.00077
0.804,0.00634,0.00059,-0.00020,-0.01830,0.00811,9.80480,37.422,38.337,38.538,44.222,-0.04424,-0.04131,0.00086
0.814,0.00620,0.00059,-0.00007,0.02808,0.01509,9.78164,37.422,38.337,38.538,44.443,-0.06799,0.06909,0.00075
0.824,0.00616,0.00059,-0.00007,-0.00382,-0.00100,9.78681,37.422,38.337,38.541,44.222,0.00291,-0.01881,0.00079
0.834,0.00602,0.00055,-0.00007,0.00474,0.00666,9.75143,37.422,38.337,38.541,44.443,-0.07244,0.06471,0.00075
0.844,0.00585,0.00059,-0.00002,0.00671,-0.00779,9.78288,37.422,38.337,38.541,44.332,0.03751,0.04103,0.00075
0.854,0.00558,0.00072,0.00007,0.01537,0.00199,9.80980,37.422,38.337,38.541,44.332,-0.04268,0.12052,0.00075
0.864,0.00549,0.00068,0.00016,0.01425,-0.03524,9.81200,37.422,38.337,38.541,44.222,0.06916,0.10372,0.00074
0.874,0.00509,0.00059,0.00020,0.03051,0.03549,9.78959,37.420,38.337,38.541,44.443,-0.04013,0.13325,0.00075
0.884,0.00509,0.00050,0.00025,-0.03150,-0.01092,9.78313,37.420,38.337,38.541,44.332,-0.00496,0.02578,0.00080
0.894,0.00509,0.00041,0.00029,0.01506,0.03036,9.80322,37.420,38.337,38.541,44.443,-0.11161,0.06424,0.00076
0.904,0.00535,0.00050,0.00025,0.03665,0.01057,9.77728,37.420,38.337,38.541,44.443,-0.07621,0.17168,0.00058
0.914,0.00531,0.00063,0.00020,0.01265,0.01680,9.77031,37.420,38.337,38.541,44.332,-0.10140,0.06164,0.00075
0.924,0.00531,0.00085,0.00007,0.00948,0.01226,9.80329,37.420,38.347,38.541,44.332,0.00931,0.03839,0.00077
0.934,0.00544,0.00094,-0.00011,-0.05716,-0.02090,9.75693,37.420,38.347,38.541,44.332,0.04197,-0.06948,0.00072
0.944,0.00549,0.00103,-0.00016,0.03100,0.00925,9.74630,37.420,38.347,38.541,44.332,0.00182,0.03528,0.00076
0.954,0.00571,0.00103,-0.00020,0.00088,-0.00746,9.78888,37.420,38.347,38.541,44.222,0.09300,-0.03037,0.00070
0.964,0.00580,0.00108,-0.00025,-0.00204,0.05155,9.76886,37.420,38.347,38.541,44.222,-0.01918,-0.02516,0.00070
0.974,0.00625,0.00135,-0.00029,-0.02325,-0.02729,9.79491,37.420,38.347,38.541,44.443,0.07643,-0.08446,0.00068
0.984,0.00633,0.00144,-0.00034,-0.01912,0.02677,9.76529,37.420,38.347,38.541,44.222,-0.03516,-0.09772,0.00067
0.994,0.00629,0.00126,-0.00038,0.02036,0.01005,9.79329,37.420,38.347,38.541,44.332,-0.04742,0.01417,0.00060
1.004,0.00638,0.00121,-0.00038,-0.04227,0.00861,9.80790,37.420,38.347,38.541,44.222,-0.04871,-0.09878,0.00070
1.014,0.00629,0.00121,-0.00047,-0.00508,0.00516,9.79482,37.420,38.347,38.541,44.443,-0.01943,0.01043,0.00064
1.024,0.00611,0.00130,-0.00052,-0.00793,-0.02016,9.80740,37.420,38.347,38.542,44.332,0.08530,-0.03291,0.00062
1.034,0.00611,0.00135,-0.00047,0.02948,-0.02835,9.75494,37.420,38.347,38.542,44.332,0.12663,0.07206,0.00082
1.044,0.00607,0.00157,-0.00029,0.01431,0.00456,9.77802,37.420,38.347,38.542,44.332,0.01415,0.08070,0.00083
1.054,0.00624,0.00166,-0.00011,-0.00457,0.00772,9.75661,37.420,38.347,38.542,44.443,-0.04031,-0.01763,0.00085
1.064,0.00620,0.00152,-0.00002,0.00511,0.00136,9.77076,37.420,38.347,38.542,44.222,0.02276,0.07519,0.00083
1.074,0.00616,0.00148,0.00002,-0.05295,-0.00151,9.80309,37.430,38.347,38.542,44.222,0.01863,-0.03742,0.00079
1.084,0.00602,0.00143,0.00020,-0.02753,0.03832,9.80379,37.430,38.347,38.542,44.332,-0.08213,-0.08871,0.00082
1.094,0.00611,0.00143,0.00024,-0.01307,0.02086,9.81360,37.430,38.347,38.542,44.332,-0.19026,-0.05499,0.00074
1.104,0.00584,0.00148,0.00029,-0.05101,0.03645,9.78681,37.430,38.347,38.542,44.222,-0.20102,-0.16769,0.00112
1.114,0.00589,0.00174,0.00029,0.01161,0.03030,9.79596,37.430,38.347,38.542,44.222,-0.18968,-0.05497,0.00074
1.124,0.00606,0.00183,0.00029,-0.04320,-0.01249,9.81364,37.430,38.346,38.542,44.222,-0.09902,-0.12313,0.00091
1.134,0.00602,0.00179,0.00024,0.00030,0.01854,9.76220,37.430,38.346,38.542,44.222,-0.10792,-0.01048,0.00071
1.144,0.00593,0.00170,0.00020,0.00740,-0.00468,9.79372,37.430,38.346,38.542,44.443,-0.00284,0.03128,0.00066
1.154,0.00593,0.00157,0.00011,-0.03061,0.02048,9.75924,37.430,38.346,38.542,44.443,-0.05768,-0.06722,0.00071
1.164,0.00571,0.00143,0.00007,0.00949,0.04069,9.81279,37.430,38.346,38.542,44.443,-0.15109,-0.00360,0.00060
1.174,0.00580,0.00130,-0.00007,0.05234,0.00525,9.73677,37.430,38.346,38.542,44.332,-0.11072,0.10113,0.00036
1.184,0.00567,0.00117,-0.00016,-0.02627,0.00524,9.77864,37.430,38.346,38.542,44.332,-0.07715,-0.00603,0.00054
1.194,0.00567,0.00094,-0.00025,0.01913,0.00629,9.82146,37.430,38.346,38.542,44.332,-0.04061,0.10038,0.00042
1.204,0.00580,0.00085,-0.00038,0.03016,0.03013,9.79605,37.430,38.346,38.542,44.332,-0.13903,0.15552,0.00035
1.214,0.00589,0.00086,-0.00065,0.01243,0.00640,9.75991,37.430,38.346,38.542,44.443,-0.05185,0.08458,0.00047
1.224,0.00598,0.00081,-0.00074,-0.00636,-0.00952,9.77197,37.430,38.346,38.543,44.332,0.02248,0.00037,0.00050
1.234,0.00629,0.00072,-0.00079,0.00384,0.01588,9.75500,37.430,38.346,38.543,44.332,-0.08758,0.02147,0.00049
1.244,0.00616,0.00077,-0.00083,0.01822,0.02692,9.79561,37.430,38.346,38.543,44.332,-0.15892,0.10830,0.00031
1.254,0.00603,0.00077,-0.00078,0.02207,0.02926,9.79441,37.430,38.346,38.543,44.332,-0.21625,0.20525,0.00000
1.264,0.00616,0.00050,-0.00065,-0.02200,-0.00005,9.78874,37.430,38.346,38.543,44.332,-0.15497,0.11066,0.00032
1.274,0.00660,0.00046,-0.00047,-0.01183,0.02119,9.79149,37.402,38.346,38.543,44.222,-0.13586,-0.00058,0.00060
1.284,0.00674,0.00046,-0.00025,-0.02950,0.00645,9.80837,37.402,38.346,38.543,44.332,-0.07974,-0.09885,0.00079
1.294,0.00687,0.00046,-0.00021,-0.00685,0.00120,9.76628,37.402,38.346,38.543,44.222,0.00802,-0.02797,0.00074
1.304,0.00692,0.00050,-0.00016,0.02515,0.02778,9.79925,37.402,38.346,38.543,44.332,-0.07094,0.05305,0.00070
1.314,0.00696,0.00068,-0.00025,-0.01410,-0.01834,9.79892,37.402,38.346,38.543,44.443,0.01918,-0.01550,0.00073
1.324,0.00705,0.00082,-0.00038,-0.02083,0.02802,9.80026,37.402,38.327,38.543,44.332,-0.07897,-0.07248,0.00076
1.334,0.00705,0.00069,-0.00034,0.01227,-0.00223,9.82227,37.402,38.327,38.543,44.222,-0.01800,0.02313,0.00068
1.344,0.00691,0.00064,-0.00007,-0.00232,0.00362,9.78559,37.402,38.327,38.543,44.332,-0.02794,-0.08978,0.00072
1.354,0.00678,0.00064,0.00011,0.01515,-0.00499,9.78933,37.402,38.327,38.543,44.443,0.00657,0.01814,0.00070
1.364,0.00660,0.00060,0.00020,0.03629,0.04393,9.76906,37.402,38.327,38.543,44.443,-0.08445,0.08517,0.00066
1.374,0.00665,0.00051,0.00033,0.04472,0.05055,9.76706,37.402,38.327,38.543,44.332,-0.17101,0.15745,0.00049
1.384,0.00656,0.00059,0.00029,0.02330,-0.00873,9.79019,37.402,38.327,38.543,44.332,-0.05872,0.14679,0.00052
1.394,0.00642,0.00064,0.00015,0.03710,0.01547,9.74791,37.402,38.327,38.543,44.443,-0.10500,0.24914,0.00036
1.404,0.00607,0.00059,0.00002,-0.00662,0.02787,9.82043,37.402,38.327,38.543,44.222,-0.12713,0.13877,0.00060
1.414,0.00611,0.00059,-0.00016,-0.01204,0.00888,9.78431,37.402,38.327,38.543,44.111,-0.08912,0.03277,0.00079
1.424,0.00625,0.00060,-0.00011,0.04829,0.04444,9.76388,37.402,38.327,38.543,44.443,-0.15267,0.12547,0.00059
1.434,0.00620,0.00059,-0.00011,-0.02271,0.03252,9.77570,37.402,38.327,38.543,44.222,-0.16903,0.01432,0.00091
1.444,0.00611,0.00068,-0.00002,-0.01361,-0.01081,9.75466,37.402,38.327,38.543,44.332,-0.06527,-0.02777,0.00100
1.454,0.00611,0.00073,0.00006,0.01184,0.00579,9.81017,37.402,38.327,38.543,44.332,-0.03059,0.07920,0.00090
1.464,0.00625,0.00059,0.00002,-0.01266,0.02845,9.78461,37.402,38.327,38.543,44.222,-0.10533,-0.00501,0.00100
1.474,0.00634,0.00051,-0.00020,0.04189,0.02560,9.77642,37.395,38.327,38.543,44.222,-0.12513,0.10574,0.00078
1.484,0.00638,0.00042,-0.00043,0.00818,-0.03426,9.78182,37.395,38.327,38.543,44.222,-0.01437,0.08608,0.00080
1.494,0.00647,0.00042,-0.00056,-0.00259,-0.00446,9.77960,37.395,38.327,38.543,44.332,0.02737,-0.01841,0.00080
1.504,0.00651,0.00060,-0.00056,0.01680,-0.01152,9.78133,37.395,38.327,38.543,44.332,0.06387,0.08805,0.00088
1.514,0.00660,0.00082,-0.00047,0.05080,0.02074,9.78412,37.395,38.327,38.543,44.332,-0.01081,0.17238,0.00093
1.524,0.00683,0.00091,-0.00034,0.01637,-0.01035,9.78856,37.395,38.327,38.543,44.222,0.06604,0.08994,0.00090
1.534,0.00700,0.00081,-0.00025,-0.00266,0.00738,9.76265,37.395,38.355,38.543,44.443,-0.01493,0.01185,0.00086
1.544,0.00687,0.00081,-0.00025,-0.00910,-0.04861,9.79750,37.395,38.355,38.543,44.332,0.09518,-0.01210,0.00084
1.554,0.00683,0.00085,-0.00034,0.02708,0.03389,9.78355,37.395,38.355,38.543,44.332,-0.00235,0.04455,0.00089
1.564,0.00691,0.00085,-0.00034,-0.01042,0.00542,9.77791,37.395,38.355,38.543,44.332,-0.03264,-0.06400,0.00093
1.574,0.00687,0.00090,-0.00038,0.00386,0.00636,9.77756,37.395,38.355,38.543,44.332,-0.03866,0.04845,0.00086
1.584,0.00682,0.00099,-0.00020,-0.00329,-0.01897,9.80340,37.395,38.355,38.543,44.443,0.06420,0.00187,0.00085
1.594,0.00674,0.00103,-0.00003,-0.01179,-0.01147,9.78161,37.395,38.355,38.543,44.111,0.06887,-0.11094,0.00072
1.604,0.00678,0.00108,0.00020,-0.01558,-0.00396,9.74456,37.395,38.355,38.543,44.443,-0.03460,-0.06715,0.00073
1.614,0.00678,0.00116,0.00038,0.00050,0.02744,9.78266,37.395,38.355,38.543,44.222,-0.13290,-0.01257,0.00065
1.624,0.00656,0.00121,0.00047,0.00824,-0.01157,9.79657,37.395,38.355,38.543,44.332,-0.02511,0.02010,0.00060
1.634,0.00673,0.00112,0.00033,-0.01704,0.04371,9.77325,37.395,38.355,38.542,44.332,-0.12505,-0.03177,0.00065
1.644,0.00682,0.00121,0.00024,0.01705,0.03681,9.77143,37.395,38.355,38.542,44.111,-0.18889,0.06081,0.00041
1.654,0.00673,0.00143,0.00020,0.00188,0.01056,9.77793,37.395,38.355,38.542,44.332,-0.08428,0.01976,0.00050
1.664,0.00633,0.00148,0.00015,-0.06554,-0.00824,9.78377,37.395,38.355,38.542,44.443,-0.04921,-0.08714,0.00063
1.674,0.00651,0.00143,0.00015,-0.03770,-0.03448,9.76071,37.411,38.355,38.542,44.222,0.04977,-0.13995,0.00063
1.684,0.00633,0.00139,0.00024,0.02102,0.01966,9.79486,37.411,38.355,38.542,44.332,-0.01003,-0.04462,0.00065
1.694,0.00638,0.00134,0.00024,0.00926,0.00034,9.79571,37.411,38.355,38.542,44.332,-0.00091,0.06776,0.00065
1.704,0.00647,0.00143,0.00024,0.01910,0.00373,9.74266,37.411,38.355,38.542,44.332,-0.04879,0.16921,0.00061
1.714,0.00638,0.00161,-0.00002,-0.01341,-0.00306,9.77754,37.411,38.355,38.542,44.443,-0.01967,0.06084,0.00067
1.724,0.00620,0.00165,-0.00020,-0.01330,0.01503,9.79071,37.411,38.355,38.542,44.222,-0.06939,-0.04005,0.00074
1.734,0.00611,0.00135,-0.00038,0.01074,-0.02385,9.78780,37.411,38.329,38.542,44.332,0.03157,0.00968,0.00073
1.744,0.00634,0.00113,-0.00052,0.05164,0.08784,9.76327,37.411,38.329,38.542,44.222,-0.06747,0.06276,0.00072
1.754,0.00651,0.00104,-0.00061,-0.02674,0.05542,9.75023,37.411,38.329,38.542,44.222,-0.15274,-0.00983,0.00087
1.764,0.00647,0.00104,-0.00047,0.02744,0.01574,9.74786,37.411,38.329,38.542,44.222,-0.11574,0.09543,0.00063
1.774,0.00647,0.00109,-0.00034,0.01121,0.01898,9.73973,37.411,38.329,38.542,44.332,-0.10051,-0.01472,0.00084
1.784,0.00660,0.00109,-0.00034,0.00065,-0.00682,9.75108,37.411,38.329,38.542,44.332,0.00953,-0.00021,0.00083
1.794,0.00700,0.00086,-0.00038,0.02180,0.02841,9.76828,37.411,38.329,38.542,44.332,-0.08044,0.06515,0.00079
1.804,0.00669,0.00073,-0.00038,-0.00398,-0.03122,9.81753,37.411,38.329,38.542,44.553,0.02536,0.02953,0.00081
1.814,0.00665,0.00060,-0.00052,0.02045,0.00238,9.79454,37.411,38.329,38.542,44.222,-0.01949,0.13226,0.00083
1.824,0.00656,0.00060,-0.00061,-0.02613,0.01761,9.80270,37.411,38.329,38.542,44.443,-0.05114,0.02427,0.00089
1.834,0.00652,0.00046,-0.00056,-0.05375,-0.01815,9.76377,37.411,38.329,38.543,44.222,-0.00391,-0.07758,0.00094
1.844,0.00638,0.00055,-0.00043,0.00386,0.00521,9.78078,37.411,38.329,38.543,44.222,-0.03282,0.03099,0.00092
1.854,0.00634,0.00068,-0.00043,-0.00370,0.02279,9.78428,37.411,38.329,38.543,44.222,-0.13250,-0.02115,0.00100
1.864,0.00634,0.00077,-0.00034,-0.01215,-0.00958,9.77195,37.411,38.329,38.543,44.332,-0.02395,-0.05000,0.00104
1.874,0.00585,0.00082,-0.00025,-0.02857,0.00216,9.78387,37.411,38.329,38.543,44.443,-0.01322,-0.16194,0.00107
1.884,0.00562,0.00077,-0.00020,-0.00454,-0.01511,9.81503,37.388,38.329,38.543,44.222,0.05434,-0.07170,0.00110
1.894,0.00540,0.00068,-0.00025,0.00128,-0.01012,9.79452,37.388,38.329,38.543,44.332,0.06124,0.04101,0.00121
1.904,0.00553,0.00068,-0.00034,-0.04076,-0.03378,9.75225,37.388,38.329,38.543,44.332,0.11061,-0.06000,0.00107
1.914,0.00540,0.00073,-0.00047,0.00214,0.03271,9.74605,37.388,38.329,38.543,44.111,0.00169,-0.03393,0.00110
1.924,0.00527,0.00077,-0.00038,0.01532,0.02408,9.75862,37.388,38.329,38.543,44.222,-0.08284,0.03923,0.00105
1.934,0.00549,0.00072,-0.00034,0.01188,-0.01926,9.78014,37.388,38.339,38.543,44.443,0.02773,0.05639,0.00104
1.944,0.00567,0.00077,-0.00016,0.04314,0.01565,9.78170,37.388,38.339,38.543,44.222,-0.03055,0.15214,0.00103
1.954,0.00571,0.00077,0.00007,0.01928,0.00085,9.80018,37.388,38.339,38.543,44.443,0.03066,0.05779,0.00103
1.964,0.00571,0.00086,0.00016,-0.01249,0.00931,9.79959,37.388,38.339,38.543,44.443,-0.03087,-0.03677,0.00104
1.974,0.00593,0.00090,0.00024,0.02156,0.00433,9.79976,37.388,38.339,38.543,44.222,-0.02706,0.07620,0.00098
1.984,0.00616,0.00086,0.00033,0.00174,-0.02196,9.80987,37.388,38.339,38.543,44.332,0.07718,0.03187,0.00096
1.994,0.00607,0.00068,0.00033,0.01458,-0.01998,9.78297,37.388,38.339,38.543,44.332,0.14476,0.12264,0.00112
2.004,0.00620,0.00054,0.00029,0.02677,0.00082,9.76523,37.388,38.339,38.543,44.222,0.03475,0.14796,0.00117
2.014,0.00633,0.00050,0.00015,0.01965,0.00658,9.79009,37.388,38.339,38.543,44.332,-0.06828,0.10159,0.00118
2.024,0.00638,0.00050,-0.00003,-0.00638,0.01627,9.79556,37.388,38.339,38.543,44.443,-0.08984,-0.00945,0.00134
2.034,0.00620,0.00046,-0.00016,0.01183,0.01227,9.79606,37.388,38.339,38.543,44.332,-0.06447,0.10089,0.00118
2.044,0.00602,0.00055,-0.00016,0.04290,0.04055,9.76911,37.388,38.339,38.543,44.332,-0.14974,0.17499,0.00104
2.054,0.00580,0.00077,-0.00029,0.01622,0.01220,9.76190,37.388,38.339,38.543,44.222,-0.07101,0.09453,0.00120
2.064,0.00567,0.00068,-0.00029,-0.02458,0.00820,9.73762,37.388,38.339,38.543,44.443,-0.06043,-0.01693,0.00133
2.074,0.00571,0.00059,-0.00034,-0.01742,0.02773,9.81716,37.388,38.339,38.543,44.332,-0.14667,-0.08895,0.00146
2.084,0.00562,0.00055,-0.00047,-0.06381,0.01513,9.76717,37.397,38.339,38.543,44.443,-0.12440,-0.19890,0.00172
2.094,0.00571,0.00055,-0.00061,-0.01614,0.00339,9.76462,37.397,38.339,38.543,44.443,-0.04511,-0.11979,0.00161
2.104,0.00567,0.00059,-0.00078,0.01427,0.03493,9.79475,37.397,38.339,38.543,44.111,-0.11443,-0.03135,0.00150
2.114,0.00553,0.00072,-0.00092,0.03288,0.01540,9.74226,37.397,38.339,38.543,44.222,-0.10266,0.07986,0.00130
2.124,0.00540,0.00086,-0.00092,0.00741,0.03136,9.78267,37.397,38.339,38.543,44.332,-0.20484,0.03387,0.00143
2.134,0.00567,0.00091,-0.00083,0.02389,-0.02257,9.78182,37.397,38.331,38.543,44.332,-0.09789,0.06752,0.00134
2.144,0.00571,0.00099,-0.00065,-0.01745,-0.03369,9.81186,37.397,38.331,38.543,44.222,-0.00034,0.01141,0.00140
2.154,0.00589,0.00113,-0.00052,-0.06029,0.03027,9.80570,37.397,38.331,38.543,44.222,-0.04970,-0.09022,0.00144
2.164,0.00593,0.00122,-0.00043,0.02511,0.00127,9.79176,37.397,38.331,38.543,44.443,-0.02991,0.02108,0.00137
2.174,0.00629,0.00131,-0.00034,0.00845,0.04896,9.76208,37.397,38.331,38.543,44.332,-0.14196,0.03346,0.00136
2.184,0.00669,0.00126,-0.00025,0.01214,-0.00661,9.77485,37.397,38.331,38.543,44.222,-0.03179,0.05644,0.00132
2.194,0.00687,0.00118,-0.00025,0.04245,0.00874,9.78214,37.397,38.331,38.543,44.222,-0.04313,0.16847,0.00125
2.204,0.00656,0.00109,-0.00029,-0.03345,-0.01055,9.78513,37.397,38.331,38.543,44.222,-0.01199,0.06019,0.00131
2.214,0.00638,0.00104,-0.00029,0.01144,-0.00515,9.75232,37.397,38.331,38.543,44.332,0.09869,0.07860,0.00131
2.224,0.00616,0.00104,-0.00025,0.00845,-0.03530,9.81479,37.397,38.331,38.543,44.222,0.20726,0.04896,0.00123
2.234,0.00625,0.00104,-0.00016,0.00915,0.02172,9.76383,37.397,38.331,38.546,44.222,0.09490,0.05053,0.00123
2.244,0.00647,0.00122,-0.00007,0.02711,-0.01092,9.80992,37.397,38.331,38.546,44.443,0.06361,0.15884,0.00138
2.254,0.00651,0.00140,-0.00003,0.00077,-0.00053,9.79688,37.397,38.331,38.546,44.222,0.02232,0.05368,0.00131
2.264,0.00602,0.00126,-0.00007,0.00132,0.02742,9.77262,37.397,38.331,38.546,44.222,-0.08708,0.02621,0.00132
2.274,0.00611,0.00113,-0.00016,0.00392,-0.02289,9.75359,37.397,38.331,38.546,44.222,0.02520,0.02458,0.00133
2.284,0.00611,0.00099,-0.00020,-0.01736,0.05993,9.80413,37.433,38.331,38.546,44.332,-0.08173,-0.01130,0.00134
2.294,0.00616,0.00091,-0.00016,-0.01694,0.02956,9.78901,37.433,38.331,38.546,44.222,-0.16309,-0.08954,0.00151
2.304,0.00593,0.00095,-0.00029,0.00711,0.01760,9.80124,37.433,38.331,38.546,44.332,-0.11592,0.01324,0.00126
2.314,0.00593,0.00117,-0.00047,0.02615,-0.01984,9.78745,37.433,38.331,38.546,44.222,-0.01908,0.07162,0.00119
2.324,0.00580,0.00122,-0.00056,-0.02572,-0.01769,9.80570,37.433,38.331,38.546,44.222,0.03567,-0.02768,0.00117
2.334,0.00607,0.00117,-0.00065,-0.02445,-0.00598,9.74534,37.433,38.343,38.546,44.443,0.03511,-0.14040,0.00111
2.344,0.00629,0.00117,-0.00065,0.00746,-0.00815,9.78811,37.433,38.343,38.546,44.332,0.04278,-0.02787,0.00120
2.354,0.00625,0.00108,-0.00061,-0.01557,0.02144,9.76332,37.433,38.343,38.546,44.222,-0.06253,-0.06755,0.00121
2.364,0.00620,0.00099,-0.00056,0.01361,-0.03612,9.78225,37.433,38.343,38.546,44.222,0.03657,-0.01428,0.00120
2.374,0.00602,0.00095,-0.00047,0.00450,0.03947,9.80835,37.433,38.343,38.546,44.222,-0.07512,0.00267,0.00120
2.384,0.00620,0.00095,-0.00047,0.00023,0.00871,9.80648,37.433,38.343,38.546,44.443,0.03794,-0.00340,0.00121
2.394,0.00638,0.00090,-0.00047,0.02014,-0.02080,9.74923,37.433,38.343,38.546,44.332,0.10203,0.08922,0.00132
2.404,0.00620,0.00086,-0.00043,-0.03096,0.03672,9.79575,37.433,38.343,38.546,44.222,0.01612,0.01595,0.00125
2.414,0.00602,0.00077,-0.00038,-0.01699,-0.02690,9.77523,37.433,38.343,38.546,44.222,0.10344,-0.05534,0.00118
2.424,0.00585,0.00077,-0.00043,-0.01839,0.01807,9.80032,37.433,38.343,38.546,44.443,-0.00625,-0.08272,0.00116
2.434,0.00585,0.00077,-0.00038,-0.02747,0.01744,9.75606,37.433,38.343,38.545,44.222,-0.09342,-0.15399,0.00122
2.444,0.00585,0.00077,-0.00020,0.05662,-0.00842,9.76782,37.433,38.343,38.545,44.222,-0.06178,-0.04616,0.00109
2.454,0.00580,0.00103,-0.00016,-0.03487,-0.00915,9.75054,37.433,38.343,38.545,44.443,0.00410,-0.13670,0.00112
2.464,0.00576,0.00103,-0.00020,-0.01031,0.02845,9.77779,37.433,38.343,38.545,44.443,-0.09826,-0.09101,0.00108
2.474,0.00585,0.00108,-0.00025,0.02806,0.01625,9.78284,37.433,38.343,38.545,44.332,-0.09693,0.02118,0.00089
2.484,0.00616,0.00117,-0.00025,0.00987,0.00808,9.81497,37.411,38.343,38.545,44.222,-0.00614,0.08765,0.00083
2.494,0.00602,0.00130,-0.00025,0.02950,0.00198,9.75679,37.411,38.343,38.545,44.332,-0.01334,0.19962,0.00081
2.504,0.00584,0.00148,-0.00034,0.01233,0.03453,9.79675,37.411,38.343,38.545,44.332,-0.10661,0.13660,0.00088
2.514,0.00562,0.00175,-0.00043,0.00577,0.01552,9.75661,37.411,38.343,38.545,44.222,-0.08993,0.02564,0.00108
2.524,0.00553,0.00184,-0.00047,0.01158,0.00341,9.78726,37.411,38.343,38.545,44.332,0.00630,0.08361,0.00103
2.534,0.00558,0.00160,-0.00052,0.00942,0.00136,9.75510,37.411,38.375,38.545,44.443,-0.04420,-0.01643,0.00107
2.544,0.00562,0.00156,-0.00052,-0.02319,0.00149,9.79275,37.411,38.375,38.545,44.332,-0.01218,-0.12410,0.00112
2.554,0.00575,0.00156,-0.00038,-0.00108,0.00167,9.77113,37.411,38.375,38.545,44.332,-0.00994,-0.01189,0.00112
2.564,0.00571,0.00151,-0.00020,-0.01061,0.02420,9.76936,37.411,38.375,38.545,44.332,-0.11476,-0.05187,0.00116
2.574,0.00549,0.00164,-0.00016,0.00157,0.00365,9.77877,37.411,38.375,38.545,44.553,-0.02087,0.00952,0.00109
2.584,0.00544,0.00173,-0.00002,-0.00224,0.02173,9.80680,37.411,38.375,38.545,44.222,-0.13111,-0.01396,0.00111
2.594,0.00526,0.00160,0.00020,0.03848,0.01409,9.79134,37.411,38.375,38.545,44.443,-0.10865,0.09659,0.00088
2.604,0.00526,0.00133,0.00020,0.02222,-0.00462,9.76121,37.411,38.375,38.545,44.443,0.00048,0.12377,0.00086
2.614,0.00509,0.00120,0.00011,0.01017,0.00556,9.74865,37.411,38.375,38.545,44.332,-0.05113,0.02430,0.00089
2.624,0.00522,0.00106,0.00002,-0.01903,0.02518,9.74721,37.411,38.375,38.545,44.332,-0.11590,-0.06669,0.00103
2.634,0.00549,0.00093,0.00011,-0.03314,0.00586,9.75690,37.411,38.375,38.545,44.443,-0.05601,-0.16073,0.00117
2.644,0.00535,0.00089,0.00011,-0.02068,0.02030,9.78582,37.411,38.375,38.545,44.001,-0.15058,-0.10106,0.00105
2.654,0.00540,0.00084,0.00016,0.01947,0.01812,9.79848,37.411,38.375,38.545,44.332,-0.12779,0.00882,0.00079
2.664,0.00549,0.00062,0.00024,0.03979,0.03597,9.78641,37.411,38.375,38.545,44.222,-0.16676,0.11425,0.00052
2.674,0.00562,0.00040,0.00029,0.00393,-0.01491,9.72862,37.411,38.375,38.545,44.222,-0.06164,0.07662,0.00059
2.684,0.00571,0.00026,0.00015,0.03801,0.02671,9.77720,37.449,38.375,38.545,44.443,-0.12256,0.17041,0.00044
2.694,0.00585,0.00026,0.00007,0.02426,0.00741,9.79252,37.449,38.375,38.545,44.332,-0.01704,0.13250,0.00049
2.704,0.00611,0.00026,-0.00007,-0.03649,0.01439,9.79544,37.449,38.375,38.545,44.332,-0.03850,0.02210,0.00054
2.714,0.00620,0.00022,-0.00020,0.00710,0.02635,9.77747,37.449,38.375,38.545,44.443,-0.14942,0.04078,0.00051
2.724,0.00620,0.00013,-0.00025,-0.00206,-0.03415,9.73674,37.449,38.375,38.545,44.332,-0.03888,0.02409,0.00054
2.734,0.00598,0.00009,-0.00025,0.01017,0.01613,9.81091,37.449,38.360,38.545,44.222,-0.13358,0.08453,0.00045
2.744,0.00607,0.00009,-0.00020,-0.00582,0.03470,9.79506,37.449,38.360,38.545,44.553,-0.19050,-0.01264,0.00072
2.754,0.00616,0.00009,-0.00016,0.01919,0.01423,9.78402,37.449,38.360,38.545,44.222,-0.11723,0.07290,0.00049
2.764,0.00612,0.00005,-0.00011,0.01396,0.01472,9.83385,37.449,38.360,38.545,44.222,-0.00847,0.10203,0.00045
2.774,0.00634,0.00009,-0.00003,-0.01391,0.00805,9.77225,37.449,38.360,38.545,44.222,-0.03173,-0.00804,0.00049
2.784,0.00634,0.00032,-0.00007,-0.00541,0.00815,9.77228,37.449,38.360,38.545,44.443,-0.09480,-0.10108,0.00059
2.794,0.00620,0.00054,-0.00020,0.00206,0.02897,9.77382,37.449,38.360,38.545,44.332,-0.15689,-0.00744,0.00039
2.804,0.00598,0.00072,-0.00043,0.01018,-0.00242,9.77040,37.449,38.360,38.545,44.332,-0.05244,0.03354,0.00032
2.814,0.00598,0.00090,-0.00052,-0.02935,0.04201,9.76597,37.449,38.360,38.545,44.443,-0.12938,-0.04801,0.00046
2.824,0.00580,0.00089,-0.00061,0.02456,0.01926,9.77919,37.449,38.360,38.545,44.222,-0.11980,0.06374,0.00021
2.834,0.00567,0.00094,-0.00065,0.04091,0.03487,9.79969,37.449,38.360,38.545,44.222,-0.16847,0.16522,-0.00004
2.844,0.00562,0.00112,-0.00061,-0.03454,0.00984,9.80391,37.449,38.360,38.545,44.443,-0.13582,0.05713,0.00026
2.854,0.00571,0.00139,-0.00065,0.02159,-0.00520,9.82072,37.449,38.360,38.545,44.222,-0.03143,0.10038,0.00020
2.864,0.00576,0.00121,-0.00052,0.00181,-0.02201,9.79459,37.449,38.360,38.545,44.332,0.06724,0.04503,0.00019
2.874,0.00571,0.00098,-0.00056,0.01073,-0.01585,9.76886,37.449,38.360,38.545,44.332,0.15992,0.10940,0.00032
2.884,0.00558,0.00085,-0.00056,-0.05824,0.02792,9.78401,37.454,38.360,38.545,44.332,0.09406,0.01772,0.00012
2.894,0.00562,0.00076,-0.00078,-0.02606,-0.00898,9.77027,37.454,38.360,38.545,44.332,0.06747,-0.09177,-0.00003
2.904,0.00571,0.00076,-0.00092,0.02068,0.02494,9.76789,37.454,38.360,38.545,44.443,-0.01221,-0.01238,0.00002
2.914,0.00571,0.00081,-0.00092,0.02471,-0.05218,9.76067,37.454,38.360,38.545,44.222,0.08834,0.03733,0.00006
2.924,0.00576,0.00072,-0.00074,-0.01394,-0.00743,9.73172,37.454,38.360,38.545,44.222,0.04930,-0.06720,-0.00006
2.934,0.00576,0.00051,-0.00043,-0.03574,-0.00680,9.76821,37.454,38.429,38.545,44.111,0.04191,-0.17854,-0.00015
2.944,0.00576,0.00024,-0.00025,0.02060,-0.00914,9.79058,37.454,38.429,38.545,44.332,0.04622,-0.06668,-0.00006
2.954,0.00607,0.00016,-0.00016,0.02552,-0.00482,9.80305,37.454,38.429,38.545,44.222,0.03683,0.04535,0.00002
2.964,0.00603,0.00007,0.00002,-0.02921,0.01833,9.79987,37.454,38.429,38.545,44.222,-0.02571,-0.04848,0.00001
2.974,0.00611,-0.00002,0.00015,0.05013,-0.02110,9.78514,37.454,38.429,38.545,44.332,0.01938,0.05489,0.00000
2.984,0.00607,-0.00002,0.00029,-0.00098,0.00198,9.74701,37.454,38.429,38.545,44.222,-0.03173,-0.04507,0.00002
2.994,0.00625,0.00016,0.00020,0.01817,-0.02307,9.76451,37.454,38.429,38.545,44.332,0.05123,0.03026,0.00003
3.004,0.00625,0.00042,0.00024,-0.00345,-0.03627,9.79705,37.454,38.429,38.545,44.332,0.15849,-0.00336,-0.00004
3.014,0.00620,0.00060,0.00029,0.00744,-0.00851,9.79575,37.454,38.429,38.545,44.443,0.05496,0.04125,0.00005
3.024,0.00616,0.00078,0.00038,0.02513,0.01753,9.83308,37.454,38.429,38.545,44.222,-0.03869,0.10393,0.00005
3.034,0.00616,0.00082,0.00042,-0.00778,0.01653,9.76097,37.454,38.429,38.546,44.332,-0.07954,-0.00076,0.00015
3.044,0.00634,0.00096,0.00033,0.00744,0.00175,9.76514,37.454,38.429,38.546,44.332,0.01484,0.05980,0.00011
3.054,0.00638,0.00105,0.00011,0.05548,0.01847,9.77853,37.454,38.429,38.546,44.222,-0.03242,0.16161,0.00009
3.064,0.00647,0.00096,-0.00003,0.00247,0.02629,9.77624,37.454,38.429,38.546,44.332,-0.10399,0.07511,0.00020
3.074,0.00634,0.00100,-0.00011,-0.04029,0.02267,9.75798,37.454,38.429,38.546,44.332,-0.11443,-0.03639,0.00041
3.084,0.00611,0.00105,-0.00011,-0.01103,0.00262,9.74495,37.436,38.429,38.546,44.443,-0.00722,-0.06720,0.00044
3.094,0.00620,0.00109,-0.00025,-0.01042,0.02595,9.71829,37.436,38.429,38.546,44.332,-0.11805,-0.06281,0.00044
3.104,0.00634,0.00114,-0.00043,0.00512,-0.03051,9.76570,37.436,38.429,38.546,44.443,-0.01214,-0.02971,0.00040
3.114,0.00625,0.00127,-0.00061,0.00217,0.01101,9.79964,37.436,38.429,38.546,44.332,-0.09885,0.04059,0.00034
3.124,0.00598,0.00114,-0.00065,-0.00209,0.01820,9.78149,37.436,38.429,38.546,44.222,-0.11508,-0.07006,0.00055
3.134,0.00594,0.00084,-0.00065,0.02447,0.02922,9.77351,37.436,38.379,38.546,44.332,-0.14361,0.03812,0.00031
3.144,0.00594,0.00062,-0.00070,-0.01606,0.02797,9.76892,37.436,38.379,38.546,44.443,-0.16072,-0.07242,0.00061
3.154,0.00594,0.00049,-0.00070,0.00626,0.02754,9.79193,37.436,38.379,38.546,44.332,-0.16118,0.03975,0.00031
3.164,0.00580,0.00040,-0.00074,0.01195,-0.02236,9.77051,37.436,38.379,38.546,44.332,-0.04971,0.05133,0.00029
3.174,0.00576,0.00044,-0.00061,0.02469,-0.01916,9.76572,37.436,38.379,38.546,44.443,0.04726,0.10728,0.00029
3.184,0.00558,0.00071,-0.00047,-0.00589,-0.01757,9.77362,37.436,38.379,38.546,44.332,0.08819,0.00304,0.00017
3.194,0.00558,0.00093,-0.00056,0.02395,-0.01767,9.75405,37.436,38.379,38.546,44.332,0.10075,0.11405,0.00036
3.204,0.00567,0.00102,-0.00056,0.03863,0.00067,9.79342,37.436,38.379,38.546,44.443,0.02418,0.19593,0.00045
3.214,0.00585,0.00102,-0.00061,-0.03418,-0.00071,9.74768,37.436,38.379,38.546,44.443,0.01852,0.08436,0.00042
3.224,0.00549,0.00098,-0.00043,-0.01378,0.02955,9.77334,37.436,38.379,38.546,44.332,-0.06620,0.01140,0.00045
3.234,0.00540,0.00106,-0.00034,-0.01603,0.02339,9.77497,37.436,38.379,38.545,44.222,-0.12866,-0.08142,0.00061
3.244,0.00553,0.00129,-0.00029,0.05545,-0.01870,9.79802,37.436,38.379,38.545,44.332,-0.07188,0.01541,0.00044
3.254,0.00567,0.00151,-0.00034,-0.00274,0.01657,9.75657,37.436,38.379,38.545,44.332,-0.14226,-0.07172,0.00061
3.264,0.00580,0.00142,-0.00038,-0.02880,-0.03553,9.76075,37.436,38.379,38.545,44.332,-0.03455,-0.10163,0.00065
3.274,0.00593,0.00147,-0.00038,-0.06550,0.03720,9.83097,37.436,38.379,38.545,44.443,-0.09566,-0.19550,0.00077
3.284,0.00593,0.00151,-0.00029,0.01475,0.02612,9.79761,37.433,38.379,38.545,44.222,-0.11801,-0.08538,0.00056
3.294,0.00607,0.00160,-0.00020,-0.02044,0.03373,9.78375,37.433,38.379,38.545,44.332,-0.22129,-0.12997,0.00069
3.304,0.00602,0.00160,-0.00016,-0.02939,0.00866,9.77740,37.433,38.379,38.545,44.332,-0.11218,-0.15703,0.00077
3.314,0.00616,0.00173,-0.00007,-0.03539,0.01483,9.80911,37.433,38.379,38.545,44.443,-0.06064,-0.25740,0.00091
3.324,0.00602,0.00156,0.00002,-0.00363,0.01476,9.79075,37.433,38.379,38.545,44.332,-0.07289,-0.14513,0.00078
3.334,0.00602,0.00120,0.00011,0.03138,-0.03059,9.76742,37.433,38.369,38.545,44.222,-0.00438,-0.05571,0.00072
3.344,0.00602,0.00107,0.00024,0.01387,-0.02233,9.77374,37.433,38.369,38.545,44.443,0.07466,0.02439,0.00078
3.354,0.00660,0.00098,0.00020,0.04378,-0.00584,9.78102,37.433,38.369,38.545,44.443,0.05529,0.13528,0.00090
3.364,0.00647,0.00089,0.00011,0.01249,-0.01989,9.82036,37.433,38.369,38.545,44.222,0.13389,0.05446,0.00077
3.374,0.00651,0.00089,0.00006,0.03135,0.05970,9.79710,37.433,38.369,38.545,44.332,0.02470,0.08359,0.00081
3.384,0.00656,0.00098,0.00015,0.03800,0.04040,9.74014,37.433,38.369,38.545,44.443,-0.07444,0.13645,0.00078
3.394,0.00660,0.00107,0.00015,0.02691,0.05494,9.76454,37.433,38.369,38.545,44.443,-0.18619,0.14611,0.00075
3.404,0.00642,0.00107,0.00020,-0.00486,0.00613,9.73973,37.433,38.369,38.545,44.332,-0.11348,0.06144,0.00098
3.414,0.00625,0.00107,0.00006,-0.01099,0.02115,9.77742,37.433,38.369,38.545,44.332,-0.12277,-0.04996,0.00121
3.424,0.00616,0.00102,0.00002,0.00706,-0.00586,9.78648,37.433,38.369,38.545,44.332,-0.02594,0.00632,0.00114
3.434,0.00593,0.00107,-0.00002,-0.02385,-0.00127,9.77467,37.433,38.369,38.549,44.332,-0.00103,-0.10293,0.00116
3.444,0.00584,0.00125,-0.00016,0.03360,0.00860,9.77285,37.433,38.369,38.549,44.332,-0.01927,0.00762,0.00113
3.454,0.00616,0.00156,-0.00020,0.03491,-0.01622,9.80676,37.433,38.369,38.549,44.332,0.03722,0.10494,0.00115
3.464,0.00611,0.00156,-0.00025,0.01849,-0.03967,9.73485,37.433,38.369,38.549,44.443,0.14906,0.10714,0.00115
3.474,0.00620,0.00143,-0.00038,-0.02340,-0.00131,9.75858,37.433,38.369,38.549,44.443,0.09313,0.01042,0.00095
3.484,0.00593,0.00143,-0.00038,0.02479,0.02358,9.80571,37.438,38.369,38.549,44.332,-0.00392,0.06690,0.00100
3.494,0.00611,0.00147,-0.00038,-0.02208,-0.00721,9.82939,37.438,38.369,38.549,44.443,0.02174,-0.04252,0.00098
3.504,0.00602,0.00138,-0.00034,0.00153,0.00177,9.79326,37.438,38.369,38.549,44.332,-0.03791,0.05302,0.00097
3.514,0.00593,0.00147,-0.00034,-0.03601,0.04201,9.78846,37.438,38.369,38.549,44.222,-0.10773,-0.03553,0.00108
3.524,0.00584,0.00143,-0.00029,0.00543,-0.02665,9.77131,37.438,38.369,38.549,44.332,0.00132,-0.00770,0.00106
3.534,0.00567,0.00119,-0.00034,0.00039,0.01771,9.74291,37.438,38.396,38.549,44.222,-0.11023,0.00289,0.00106
3.544,0.00571,0.00110,-0.00034,0.00520,0.02668,9.76942,37.438,38.396,38.549,44.222,-0.20640,0.06026,0.00089
3.554,0.00585,0.00110,-0.00043,-0.01865,0.01911,9.76694,37.438,38.396,38.549,44.332,-0.15208,-0.03755,0.00120
3.564,0.00611,0.00106,-0.00052,0.01719,0.01883,9.78841,37.438,38.396,38.549,44.222,-0.11958,0.06978,0.00096
3.574,0.00638,0.00106,-0.00052,-0.03841,0.01816,9.78174,37.438,38.396,38.549,44.222,-0.11459,-0.04238,0.00119
3.584,0.00629,0.00124,-0.00056,0.02255,-0.01294,9.79785,37.438,38.396,38.549,44.443,-0.03159,0.03366,0.00110
3.594,0.00634,0.00155,-0.00074,-0.02750,0.03038,9.72543,37.438,38.396,38.549,44.332,-0.09889,-0.05564,0.00120
3.604,0.00620,0.00164,-0.00070,-0.03077,0.03353,9.76078,37.438,38.396,38.549,44.222,-0.16779,-0.14354,0.00141
3.614,0.00633,0.00173,-0.00074,0.00869,-0.01161,9.78250,37.438,38.396,38.549,44.332,-0.08150,-0.07238,0.00127
3.624,0.00625,0.00169,-0.00079,-0.01205,0.00623,9.79438,37.438,38.396,38.549,44.332,0.03059,-0.06767,0.00127
3.634,0.00629,0.00173,-0.00083,-0.00348,-0.02369,9.77005,37.438,38.396,38.548,44.332,0.13336,-0.02285,0.00134
3.644,0.00625,0.00186,-0.00092,0.01562,-0.01418,9.79381,37.438,38.396,38.548,44.222,0.08795,0.08001,0.00155
3.654,0.00629,0.00213,-0.00096,0.00430,-0.03277,9.78300,37.438,38.396,38.548,44.332,0.18743,0.02751,0.00143
3.664,0.00642,0.00204,-0.00105,0.00170,0.01715,9.80081,37.438,38.396,38.548,44.332,0.07477,0.02063,0.00142
3.674,0.00651,0.00173,-0.00105,0.01066,-0.01733,9.78777,37.438,38.396,38.548,44.443,0.13544,0.11580,0.00161
3.684,0.00660,0.00155,-0.00105,0.02002,0.00013,9.81144,37.452,38.396,38.548,44.332,0.02226,0.11671,0.00162
3.694,0.00669,0.00147,-0.00105,-0.00210,0.00383,9.73171,37.452,38.396,38.548,44.332,-0.01463,0.01058,0.00162
3.704,0.00643,0.00142,-0.00105,0.04342,-0.03887,9.77516,37.452,38.396,38.548,44.332,0.06451,0.09023,0.00166
3.714,0.00620,0.00146,-0.00101,-0.01036,-0.00489,9.79243,37.452,38.396,38.548,44.332,0.03843,-0.01927,0.00157
3.724,0.00611,0.00142,-0.00083,-0.04445,0.00467,9.78620,37.452,38.396,38.548,44.332,0.00873,-0.12794,0.00153
3.734,0.00594,0.00117,-0.00087,0.02392,0.00851,9.77925,37.452,38.337,38.548,44.443,-0.01534,-0.01793,0.00153
3.744,0.00558,0.00081,-0.00101,0.02488,0.01895,9.79809,37.452,38.337,38.548,44.332,-0.07230,0.07953,0.00147
3.754,0.00558,0.00068,-0.00092,-0.02952,0.00609,9.81561,37.452,38.337,38.548,44.222,-0.05601,-0.03237,0.00161
3.764,0.00562,0.00068,-0.00078,-0.00594,0.01320,9.79276,37.452,38.337,38.548,44.443,-0.16848,-0.04507,0.00164
3.774,0.00585,0.00068,-0.00065,-0.02494,-0.00628,9.77227,37.452,38.337,38.548,44.222,-0.06722,-0.09500,0.00174
3.784,0.00567,0.00077,-0.00061,-0.00503,-0.00667,9.81579,37.452,38.337,38.548,44.332,0.02898,-0.03552,0.00173
3.794,0.00585,0.00090,-0.00052,0.03581,0.00833,9.79900,37.452,38.337,38.548,44.222,-0.00530,0.07247,0.00175
3.804,0.00598,0.00099,-0.00052,-0.05039,0.01689,9.78772,37.452,38.337,38.548,44.332,-0.03328,-0.03730,0.00179
3.814,0.00589,0.00104,-0.00047,0.05018,-0.00821,9.73603,37.452,38.337,38.548,44.222,-0.00650,0.07194,0.00176
3.824,0.00580,0.00108,-0.00038,-0.00247,-0.01748,9.78731,37.452,38.337,38.548,44.332,0.08168,0.00193,0.00172
3.834,0.00585,0.00104,-0.00038,-0.00627,0.00440,9.80286,37.452,38.337,38.547,44.443,-0.02465,-0.03624,0.00170
3.844,0.00602,0.00104,-0.00034,0.04953,0.00111,9.77417,37.452,38.337,38.547,44.222,-0.01843,0.07636,0.00166
3.854,0.00611,0.00117,-0.00034,0.05874,0.04187,9.76515,37.452,38.337,38.547,44.443,-0.09118,0.16221,0.00158
3.864,0.00598,0.00126,-0.00034,-0.01310,-0.00261,9.79442,37.452,38.337,38.547,44.222,-0.04531,0.05923,0.00170
3.874,0.00611,0.00117,-0.00034,-0.00853,0.01232,9.76742,37.452,38.337,38.547,44.443,-0.07228,-0.05002,0.00181
3.884,0.00598,0.00104,-0.00038,-0.03232,-0.01318,9.80042,37.453,38.337,38.547,44.222,0.01030,-0.12689,0.00186
3.894,0.00576,0.00090,-0.00061,-0.02223,-0.01690,9.80009,37.453,38.337,38.547,44.222,0.12329,-0.13083,0.00187
3.904,0.00549,0.00081,-0.00074,0.00503,0.00826,9.77032,37.453,38.337,38.547,44.222,0.04078,-0.05384,0.00197
3.914,0.00549,0.00090,-0.00087,0.02130,-0.02117,9.75004,37.453,38.337,38.547,44.222,0.08830,0.04793,0.00210
3.924,0.00536,0.00117,-0.00087,-0.00423,0.00244,9.78398,37.453,38.337,38.547,44.332,-0.00346,-0.01709,0.00206
3.934,0.00518,0.00112,-0.00087,-0.00598,-0.01559,9.79050,37.453,38.360,38.547,44.222,0.10718,-0.03802,0.00205
3.944,0.00527,0.00098,-0.00078,-0.03984,-0.01381,9.75255,37.453,38.360,38.547,44.111,0.09237,-0.14925,0.00187
3.954,0.00531,0.00094,-0.00078,0.01349,0.04177,9.77661,37.453,38.360,38.547,44.443,-0.00057,-0.08633,0.00192
3.964,0.00540,0.00098,-0.00065,0.00370,-0.03443,9.74682,37.453,38.360,38.547,44.332,0.09810,-0.03379,0.00197
3.974,0.00536,0.00098,-0.00065,-0.02127,-0.05841,9.77820,37.453,38.360,38.547,44.222,0.20298,-0.07282,0.00187
3.984,0.00527,0.00107,-0.00069,-0.01956,-0.03007,9.75272,37.453,38.360,38.547,44.443,0.14381,-0.16751,0.00159
3.994,0.00562,0.00134,-0.00074,0.01249,-0.03159,9.76172,37.453,38.360,38.547,44.222,0.16279,-0.05759,0.00188
4.004,0.00553,0.00156,-0.00060,0.00218,0.01595,9.78313,37.453,38.360,38.547,44.222,0.05495,-0.02800,0.00196
4.014,0.00576,0.00170,-0.00047,0.00051,-0.03325,9.76690,37.453,38.360,38.547,44.222,0.16405,-0.00388,0.00200
4.024,0.00607,0.00174,-0.00029,0.00014,-0.04011,9.78141,37.453,38.360,38.547,44.332,0.27572,0.00353,0.00202
4.034,0.00598,0.00183,-0.00011,0.01190,0.00727,9.79367,37.453,38.360,38.547,44.332,0.16577,0.02633,0.00211
4.044,0.00620,0.00187,0.00011,0.01247,-0.00086,9.77120,37.453,38.360,38.547,44.222,0.05802,0.05768,0.00217
4.054,0.00633,0.00196,0.00020,-0.02515,0.03829,9.78853,37.453,38.360,38.547,44.443,-0.03296,-0.00837,0.00215
4.064,0.00633,0.00210,0.00029,-0.04293,0.02068,9.74673,37.453,38.360,38.547,44.222,-0.07120,-0.11360,0.00225
4.074,0.00624,0.00192,0.00020,0.02020,0.00227,9.76157,37.453,38.360,38.547,44.443,-0.04419,-0.00515,0.00214
4.084,0.00638,0.00170,0.00011,-0.04987,-0.03173,9.70596,37.457,38.360,38.547,44.222,0.02507,-0.09173,0.00215
4.094,0.00629,0.00147,-0.00003,0.00783,0.03400,9.76577,37.457,38.360,38.547,44.332,-0.06959,-0.03370,0.00213
4.104,0.00629,0.00130,-0.00007,0.01598,0.02722,9.77750,37.457,38.360,38.547,44.222,-0.13380,0.05719,0.00196
4.114,0.00629,0.00121,-0.00007,-0.00792,0.02006,9.78508,37.457,38.360,38.547,44.332,-0.11644,-0.05307,0.00221
4.124,0.00602,0.00112,0.00002,0.04124,0.00724,9.79863,37.457,38.360,38.547,44.332,-0.08909,0.05562,0.00201
4.134,0.00638,0.00065,0.00006,-0.03135,0.01664,9.76207,37.457,38.421,38.547,44.332,-0.09313,-0.05622,0.00219
4.144,0.00643,0.00025,0.00002,0.01945,-0.04064,9.78592,37.457,38.421,38.547,44.332,0.00658,-0.00498,0.00214
4.154,0.00629,0.00011,0.00002,-0.00287,-0.00835,9.76555,37.457,38.421,38.547,44.332,0.11441,-0.03515,0.00211
4.164,0.00647,0.00003,-0.00003,-0.01963,0.00185,9.77266,37.457,38.421,38.547,44.332,0.01998,-0.09542,0.00204
4.174,0.00634,-0.00011,-0.00016,0.01197,-0.02807,9.78381,37.457,38.421,38.547,44.443,0.09370,-0.01090,0.00212
4.184,0.00629,-0.00015,-0.00016,0.00769,-0.02620,9.78499,37.457,38.421,38.547,44.332,0.17565,0.06589,0.00230
4.194,0.00625,-0.00011,-0.00012,-0.00673,0.02879,9.75247,37.457,38.421,38.547,44.443,0.06855,0.03316,0.00223
4.204,0.00620,0.00003,-0.00007,0.06041,-0.00261,9.76901,37.457,38.421,38.547,44.332,0.05023,0.14358,0.00234
4.214,0.00607,0.00020,-0.00003,0.00284,-0.01582,9.80662,37.457,38.421,38.547,44.222,0.08567,0.03687,0.00221
4.224,0.00607,0.00029,0.00002,-0.02617,0.03133,9.77449,37.457,38.421,38.547,44.332,-0.00615,-0.02797,0.00217
4.234,0.00602,0.00043,0.00006,0.07982,0.01609,9.78629,37.457,38.421,38.549,44.443,-0.02587,0.08281,0.00213
4.244,0.00616,0.00047,0.00015,0.01597,0.02266,9.79120,37.457,38.421,38.549,44.222,-0.13803,0.09402,0.00211
4.254,0.00625,0.00056,0.00020,0.02011,0.02964,9.80002,37.457,38.421,38.549,44.222,-0.23206,0.15669,0.00191
4.264,0.00616,0.00087,0.00020,-0.02284,0.00380,9.79595,37.457,38.421,38.549,44.443,-0.16582,0.06499,0.00223
4.274,0.00607,0.00105,0.00006,-0.02293,0.00121,9.82291,37.457,38.421,38.549,44.332,-0.09520,-0.02343,0.00243
4.284,0.00620,0.00109,-0.00003,-0.01711,-0.01463,9.77115,37.456,38.421,38.549,44.222,0.00870,-0.06760,0.00246
4.294,0.00625,0.00114,-0.00011,-0.01341,-0.01675,9.81580,37.456,38.421,38.549,44.443,0.12097,-0.08109,0.00244
4.304,0.00620,0.00127,-0.00020,0.01093,0.02110,9.80084,37.456,38.421,38.549,44.443,0.02350,-0.02327,0.00251
4.314,0.00598,0.00136,-0.00025,0.01537,-0.00258,9.82149,37.456,38.421,38.549,44.332,0.01501,0.08975,0.00254
4.324,0.00602,0.00154,-0.00025,-0.00019,0.01749,9.79196,37.456,38.421,38.549,44.332,-0.07464,0.02031,0.00259
4.334,0.00593,0.00143,-0.00011,-0.00816,0.04838,9.76161,37.456,38.368,38.549,44.332,-0.18203,-0.01468,0.00266
4.344,0.00607,0.00111,0.00006,0.01970,-0.01696,9.75202,37.456,38.368,38.549,44.332,-0.08002,0.03256,0.00255
4.354,0.00616,0.00102,0.00011,-0.00309,0.01844,9.74209,37.456,38.368,38.549,44.443,-0.13476,-0.06507,0.00274
4.364,0.00616,0.00094,0.00011,0.01351,0.00799,9.77518,37.456,38.368,38.549,44.222,-0.07652,0.03054,0.00255
4.374,0.00598,0.00098,0.00002,-0.02746,0.04435,9.76958,37.456,38.368,38.549,44.222,-0.15398,-0.05029,0.00272
4.384,0.00607,0.00111,-0.00007,-0.00963,0.00884,9.76301,37.456,38.368,38.549,44.443,-0.04241,-0.05710,0.00273
4.394,0.00589,0.00125,-0.00011,-0.04118,-0.00607,9.77421,37.456,38.368,38.549,44.332,0.00117,-0.16012,0.00276
4.404,0.00580,0.00111,0.00002,0.00117,-0.00129,9.79568,37.456,38.368,38.549,44.443,0.00544,-0.04797,0.00276
4.414,0.00562,0.00102,0.00015,0.04326,0.03792,9.78360,37.456,38.368,38.549,44.332,-0.06229,0.04170,0.00272
4.424,0.00571,0.00098,0.00024,0.00167,-0.00518,9.77882,37.456,38.368,38.549,44.332,0.04395,0.00511,0.00273
4.434,0.00567,0.00098,0.00042,-0.00877,-0.00301,9.77555,37.456,38.368,38.549,44.332,-0.00350,-0.09674,0.00268
4.444,0.00589,0.00098,0.00042,-0.00695,-0.03286,9.79421,37.456,38.368,38.549,44.332,0.10473,-0.06573,0.00270
4.454,0.00589,0.00107,0.00024,0.00233,0.01317,9.75540,37.456,38.368,38.549,44.332,0.00183,-0.02088,0.00275
4.464,0.00589,0.00116,0.00011,0.01263,-0.02342,9.79706,37.456,38.368,38.549,44.332,0.09396,0.04373,0.00280
4.474,0.00576,0.00111,-0.00007,-0.01713,0.01953,9.77177,37.456,38.368,38.549,44.222,0.00148,-0.02023,0.00275
4.484,0.00580,0.00111,-0.00011,0.00152,-0.03236,9.80027,37.433,38.368,38.549,44.443,0.11289,-0.00296,0.00277
4.494,0.00580,0.00125,-0.00007,0.01025,-0.03701,9.75651,37.433,38.368,38.549,44.332,0.20902,0.05519,0.00292
4.504,0.00584,0.00129,-0.00007,-0.03463,0.02474,9.78373,37.433,38.368,38.549,44.332,0.11812,-0.01107,0.00273
4.514,0.00584,0.00138,-0.00011,0.00481,-0.00936,9.77966,37.433,38.368,38.549,44.332,0.02251,0.04822,0.00280
4.524,0.00580,0.00156,-0.00025,-0.02465,0.02300,9.80469,37.433,38.368,38.549,44.443,-0.04888,-0.03924,0.00282
4.534,0.00580,0.00176,-0.00029,0.01069,0.01794,9.77472,37.433,38.428,38.549,44.222,-0.10339,0.05943,0.00270
4.544,0.00593,0.00176,-0.00038,0.01701,0.00459,9.77883,37.433,38.428,38.549,44.332,-0.00370,0.11188,0.00264
4.554,0.00571,0.00172,-0.00047,-0.01015,-0.01798,9.77843,37.433,38.428,38.549,44.001,0.05675,0.01686,0.00261
4.564,0.00576,0.00163,-0.00052,0.04566,0.00640,9.76046,37.433,38.428,38.549,44.222,0.01725,0.12200,0.00268
4.574,0.00567,0.00158,-0.00061,-0.02931,-0.00738,9.80282,37.433,38.428,38.549,44.332,0.02713,0.00971,0.00264
4.584,0.00589,0.00158,-0.00052,-0.03659,0.01561,9.81714,37.433,38.428,38.549,44.332,-0.02574,-0.09010,0.00264
4.594,0.00598,0.00181,-0.00047,-0.02675,-0.01971,9.77958,37.433,38.428,38.549,44.443,0.07629,-0.13826,0.00262
4.604,0.00598,0.00212,-0.00038,-0.01811,0.02386,9.80874,37.433,38.428,38.549,44.332,-0.03563,-0.12143,0.00263
4.614,0.00580,0.00203,-0.00034,-0.03079,0.00320,9.75813,37.433,38.428,38.549,44.443,-0.00493,-0.22989,0.00267
4.624,0.00571,0.00180,-0.00034,0.03419,-0.01094,9.77980,37.433,38.428,38.549,44.332,0.01291,-0.11865,0.00268
4.634,0.00571,0.00163,-0.00025,0.01770,0.01417,9.77115,37.433,38.428,38.550,44.443,-0.03170,-0.01534,0.00267
4.644,0.00571,0.00140,-0.00020,-0.00031,-0.01125,9.80819,37.433,38.428,38.550,44.332,0.08012,0.00019,0.00267
4.654,0.00593,0.00149,-0.00007,0.01932,-0.01659,9.74800,37.433,38.428,38.550,44.443,0.09714,0.11125,0.00283
4.664,0.00602,0.00176,-0.00002,-0.01121,0.00847,9.77306,37.433,38.428,38.550,44.332,0.02543,0.02480,0.00275
4.674,0.00571,0.00158,-0.00007,-0.00280,-0.01981,9.78209,37.433,38.428,38.550,44.332,0.12769,-0.02177,0.00267
4.684,0.00562,0.00136,-0.00011,0.02618,0.01467,9.77601,37.442,38.428,38.550,44.332,0.04079,0.04947,0.00278
4.694,0.00576,0.00123,-0.00020,-0.03876,0.03668,9.81340,37.442,38.428,38.550,44.332,-0.03574,-0.03329,0.00278
4.704,0.00598,0.00123,-0.00011,-0.01419,-0.00572,9.78599,37.442,38.428,38.550,44.443,0.05578,-0.09913,0.00276
4.714,0.00576,0.00118,0.00002,0.04856,0.07107,9.80797,37.442,38.428,38.550,44.332,-0.03200,-0.02779,0.00278
4.724,0.00571,0.00131,0.00011,-0.00278,0.00862,9.78958,37.442,38.428,38.550,44.443,-0.12804,0.03202,0.00269
4.734,0.00571,0.00119,0.00011,0.03468,0.05233,9.76258,37.442,38.404,38.550,44.443,-0.20951,0.11000,0.00246
4.744,0.00584,0.00106,0.00006,0.01033,0.00917,9.79366,37.442,38.404,38.550,44.443,-0.10192,0.07577,0.00256
4.754,0.00593,0.00101,0.00006,0.00594,0.05821,9.78212,37.442,38.404,38.550,44.332,-0.21320,0.05668,0.00260
4.764,0.00607,0.00110,0.00011,-0.00052,0.01363,9.78917,37.442,38.404,38.550,44.222,-0.11013,0.01050,0.00273
4.774,0.00598,0.00128,0.00002,-0.01786,0.01074,9.78629,37.442,38.404,38.550,44.222,-0.06724,-0.09401,0.00289
4.784,0.00593,0.00128,-0.00011,0.00245,-0.00366,9.77238,37.442,38.404,38.550,44.332,0.00415,-0.00673,0.00285
4.794,0.00584,0.00132,-0.00011,0.02142,-0.00005,9.75315,37.442,38.404,38.550,44.332,0.00085,0.10555,0.00284
4.804,0.00624,0.00155,-0.00007,0.06723,-0.00776,9.81410,37.442,38.404,38.550,44.443,0.01807,0.21688,0.00287
4.814,0.00647,0.00150,-0.00003,0.06958,-0.00737,9.80687,37.442,38.404,38.550,44.443,0.03282,0.32894,0.00291
4.824,0.00642,0.00141,0.00006,-0.01861,0.01337,9.77220,37.442,38.404,38.550,44.443,0.00503,0.21957,0.00288
4.834,0.00629,0.00128,0.00020,-0.00737,0.02032,9.74447,37.442,38.404,38.551,44.332,-0.04303,0.11812,0.00290
4.844,0.00633,0.00132,0.00011,-0.00933,0.05971,9.82547,37.442,38.404,38.551,44.222,-0.14092,0.06278,0.00300
4.854,0.00620,0.00132,0.00002,-0.03686,-0.00836,9.76460,37.442,38.404,38.551,44.443,-0.07780,-0.03000,0.00317
4.864,0.00602,0.00146,-0.00011,0.02393,0.01458,9.75871,37.442,38.404,38.551,44.332,-0.08296,0.08185,0.00301
4.874,0.00598,0.00132,-0.00020,0.02804,0.01893,9.78042,37.442,38.404,38.551,44.332,-0.11893,0.18801,0.00283
4.884,0.00602,0.00106,-0.00020,0.01044,0.02384,9.81851,37.452,38.404,38.551,44.443,-0.13657,0.07699,0.00307
4.894,0.00594,0.00088,-0.00020,0.00730,-0.01669,9.75960,37.452,38.404,38.551,44.222,-0.02563,0.06083,0.00309
4.904,0.00576,0.00074,-0.00011,0.02800,0.03036,9.75744,37.452,38.404,38.551,44.443,-0.11823,0.12365,0.00301
4.914,0.00576,0.00065,-0.00002,0.01051,0.01017,9.74701,37.452,38.404,38.551,44.332,-0.04165,0.04258,0.00311
4.924,0.00594,0.00057,-0.00011,0.00070,-0.00275,9.82062,37.452,38.404,38.551,44.222,0.05142,-0.01956,0.00311
4.934,0.00598,0.00043,-0.00016,-0.04046,-0.00375,9.77943,37.452,38.408,38.551,44.222,0.03635,-0.13059,0.00303
4.944,0.00576,0.00025,-0.00007,-0.01014,0.00132,9.81412,37.452,38.408,38.551,44.332,-0.02275,-0.03492,0.00303
4.954,0.00567,0.00016,-0.00007,-0.00282,0.01929,9.76741,37.452,38.408,38.551,44.222,-0.13279,-0.01253,0.00301
4.964,0.00580,0.00016,-0.00020,-0.00791,-0.00763,9.76834,37.452,38.408,38.551,44.332,-0.02264,-0.03355,0.00303
4.974,0.00585,0.00012,-0.00025,0.03334,-0.00747,9.78822,37.452,38.408,38.551,44.332,0.00865,0.07436,0.00302
4.984,0.00607,0.00016,-0.00029,0.02389,0.02328,9.83586,37.452,38.408,38.551,44.332,-0.09386,0.12042,0.00299
4.994,0.00625,0.00034,-0.00034,0.00512,-0.00512,9.78567,37.452,38.408,38.551,44.222,-0.00305,0.05408,0.00305
5.004,0.00607,0.00070,-0.00025,0.00203,0.00093,9.76874,37.452,38.408,38.551,44.443,-0.00949,-0.05807,0.00305
5.014,0.00602,0.00097,-0.00029,0.03638,0.01010,9.75035,37.452,38.408,38.551,44.443,-0.02969,0.05203,0.00302
5.024,0.00594,0.00110,-0.00047,0.05251,0.01644,9.75520,37.452,38.408,38.551,44.443,-0.05790,0.16011,0.00294
5.034,0.00616,0.00115,-0.00052,0.00497,-0.01025,9.74388,37.452,38.408,38.554,44.443,0.01668,0.07746,0.00297
5.044,0.00616,0.00110,-0.00056,0.01886,0.00240,9.80499,37.452,38.408,38.554,44.332,-0.05990,0.15915,0.00294
5.054,0.00634,0.00115,-0.00052,-0.00911,-0.03871,9.77292,37.452,38.408,38.554,44.332,0.03004,0.09248,0.00297
5.064,0.00620,0.00137,-0.00047,-0.04607,-0.00061,9.81799,37.452,38.408,38.554,44.332,0.02181,-0.01955,0.00291
5.074,0.00656,0.00150,-0.00056,0.00618,0.04091,9.77216,37.452,38.408,38.554,44.443,-0.08799,0.00385,0.00291
5.084,0.00656,0.00146,-0.00061,0.05232,0.01431,9.80829,37.446,38.408,38.554,44.332,-0.08637,0.11652,0.00273
5.094,0.00634,0.00137,-0.00070,0.03589,-0.02929,9.79478,37.446,38.408,38.554,44.332,0.01973,0.15498,0.00272
5.104,0.00634,0.00119,-0.00065,-0.01347,0.00041,9.78113,37.446,38.408,38.554,44.332,0.00908,0.04264,0.00270
5.114,0.00629,0.00110,-0.00065,-0.00575,-0.01577,9.73703,37.446,38.408,38.554,44.222,0.09184,-0.03303,0.00264
5.124,0.00625,0.00119,-0.00047,-0.01332,-0.00351,9.75623,37.446,38.408,38.554,44.222,-0.00266,-0.09298,0.00260
5.134,0.00651,0.00124,-0.00052,0.00369,0.05204,9.78134,37.446,38.407,38.554,44.111,-0.10744,-0.05325,0.00256
5.144,0.00665,0.00097,-0.00061,-0.01576,-0.00420,9.78718,37.446,38.407,38.554,44.332,0.00018,-0.08505,0.00259
5.154,0.00674,0.00075,-0.00056,0.01500,0.00653,9.79289,37.446,38.407,38.554,44.332,-0.02426,0.02477,0.00258
5.164,0.00696,0.00061,-0.00047,0.00692,0.01212,9.76789,37.446,38.407,38.554,44.332,-0.13069,0.06079,0.00253
5.174,0.00692,0.00070,-0.00047,0.00800,0.01333,9.78438,37.446,38.407,38.554,44.332,-0.02203,0.03198,0.00257
5.184,0.00669,0.00070,-0.00047,0.01774,0.01490,9.76069,37.446,38.407,38.554,44.332,-0.09743,0.11506,0.00248
5.194,0.00665,0.00079,-0.00056,0.04046,0.04138,9.79724,37.446,38.407,38.554,44.443,-0.18359,0.18746,0.00231
5.204,0.00656,0.00106,-0.00061,-0.00831,-0.00952,9.77679,37.446,38.407,38.554,44.553,-0.10355,0.10846,0.00251
5.214,0.00651,0.00119,-0.00056,-0.04091,-0.02796,9.77031,37.446,38.407,38.554,44.332,-0.03515,0.01935,0.00263
5.224,0.00651,0.00128,-0.00043,0.02299,0.04733,9.79954,37.446,38.407,38.554,44.332,-0.13691,0.06780,0.00256
5.234,0.00651,0.00137,-0.00043,0.01843,-0.01803,9.77976,37.446,38.407,38.556,44.443,-0.02579,0.08621,0.00253
5.244,0.00647,0.00137,-0.00034,-0.01421,0.00836,9.75013,37.446,38.407,38.556,44.443,-0.04110,-0.02495,0.00261
5.254,0.00647,0.00128,-0.00038,0.02431,0.02326,9.82782,37.446,38.407,38.556,44.222,-0.09653,0.07278,0.00248
5.264,0.00642,0.00132,-0.00034,0.00114,0.00710,9.77875,37.446,38.407,38.556,44.222,-0.02471,-0.01362,0.00258
5.274,0.00651,0.00137,-0.00029,0.03150,-0.01592,9.79147,37.446,38.407,38.556,44.443,0.03288,0.08309,0.00259
5.284,0.00656,0.00124,-0.00038,0.00035,0.03022,9.81039,37.453,38.407,38.556,44.332,-0.07246,0.04232,0.00261
5.294,0.00638,0.00115,-0.00047,0.00006,-0.00134,9.78362,37.453,38.407,38.556,44.332,0.02759,-0.00995,0.00263
5.304,0.00620,0.00106,-0.00047,-0.01818,0.00764,9.77746,37.453,38.407,38.556,44.332,-0.04006,-0.10023,0.00264
5.314,0.00611,0.00106,-0.00061,0.01335,0.02675,9.76061,37.453,38.407,38.556,44.332,-0.10169,-0.00616,0.00253
5.324,0.00620,0.00115,-0.00061,-0.01133,-0.00695,9.75183,37.453,38.407,38.556,44.332,0.00147,-0.04988,0.00257
5.334,0.00611,0.00120,-0.00061,0.00098,0.01863,9.78472,37.453,38.389,38.556,44.332,-0.09880,0.00057,0.00253
5.344,0.00616,0.00097,-0.00065,-0.02473,-0.02051,9.76150,37.453,38.389,38.556,44.443,-0.00554,-0.06146,0.00260
5.354,0.00638,0.00080,-0.00070,0.00405,0.02172,9.78030,37.453,38.389,38.556,44.332,-0.09742,0.00286,0.00254
5.364,0.00625,0.00075,-0.00083,-0.02399,-0.02542,9.78163,37.453,38.389,38.556,44.332,-0.00043,-0.05360,0.00260
5.374,0.00625,0.00080,-0.00101,-0.00552,0.01888,9.76901,37.453,38.389,38.556,44.332,-0.11057,-0.03244,0.00258
5.384,0.00616,0.00084,-0.00110,0.00917,0.02094,9.76022,37.453,38.389,38.556,44.332,-0.12648,0.07836,0.00236
5.394,0.00634,0.00089,-0.00114,0.01939,-0.00189,9.78250,37.453,38.389,38.556,44.332,-0.01792,0.10615,0.00234
5.404,0.00634,0.00111,-0.00110,-0.01582,0.01220,9.75654,37.453,38.389,38.556,44.332,-0.04708,-0.00183,0.00241
5.414,0.00611,0.00124,-0.00096,-0.01669,-0.00211,9.72726,37.453,38.389,38.556,44.332,0.01127,-0.09650,0.00245
5.424,0.00620,0.00138,-0.00096,0.00133,-0.00066,9.75548,37.453,38.389,38.556,44.332,0.00336,0.01433,0.00247
5.434,0.00643,0.00138,-0.00088,-0.02424,0.06512,9.77190,37.453,38.389,38.560,44.332,-0.09977,-0.02756,0.00251
5.444,0.00643,0.00133,-0.00079,0.01717,0.04728,9.80555,37.453,38.389,38.560,44.222,-0.19043,0.03811,0.00235
5.454,0.00629,0.00129,-0.00083,0.01118,0.00075,9.79732,37.453,38.389,38.560,44.332,-0.07933,0.05441,0.00232
5.464,0.00611,0.00138,-0.00083,-0.00860,-0.02367,9.79375,37.453,38.389,38.560,44.332,0.02211,0.00561,0.00236
5.474,0.00616,0.00151,-0.00079,-0.00330,-0.01136,9.78486,37.453,38.389,38.560,44.222,0.12029,-0.04958,0.00229
5.484,0.00598,0.00133,-0.00070,0.01076,0.01104,9.77797,37.441,38.389,38.560,44.332,0.02409,0.00897,0.00236
5.494,0.00611,0.00133,-0.00052,-0.01159,0.01865,9.83573,37.441,38.389,38.560,44.222,-0.07344,-0.04725,0.00239
5.504,0.00625,0.00124,-0.00038,-0.02903,0.00564,9.79150,37.441,38.389,38.560,44.222,-0.03814,-0.15430,0.00250
5.514,0.00634,0.00111,-0.00029,-0.04788,0.03152,9.79208,37.441,38.389,38.560,44.332,-0.12373,-0.22792,0.00259
5.524,0.00611,0.00111,-0.00020,-0.00292,-0.00755,9.77600,37.441,38.389,38.560,44.222,-0.05349,-0.13975,0.00246
5.534,0.00593,0.00128,-0.00016,0.01877,0.01387,9.79367,37.441,38.409,38.560,44.443,-0.06595,-0.02752,0.00235
5.544,0.00611,0.00119,-0.00003,0.05532,0.02772,9.79215,37.441,38.409,38.560,44.332,-0.09585,0.08148,0.00219
5.554,0.00593,0.00092,0.00015,-0.01003,-0.01389,9.73861,37.441,38.409,38.560,44.332,-0.00778,0.01178,0.00225
5.564,0.00593,0.00079,0.00011,0.03940,0.00715,9.77651,37.441,38.409,38.560,44.443,-0.02507,0.12276,0.00222
5.574,0.00611,0.00079,0.00015,0.01422,0.02926,9.82171,37.441,38.409,38.560,44.443,-0.13365,0.09311,0.00225
5.584,0.00620,0.00074,0.00033,-0.01061,0.00222,9.73852,37.441,38.409,38.560,44.222,-0.06508,0.00464,0.00241
5.594,0.00638,0.00074,0.00042,0.02201,0.04528,9.76175,37.441,38.409,38.560,44.443,-0.16009,0.06360,0.00228
5.604,0.00625,0.00096,0.00042,-0.02797,0.01866,9.77977,37.441,38.409,38.560,44.332,-0.13573,-0.04565,0.00256
5.614,0.00625,0.00105,0.00024,-0.01375,0.03827,9.74153,37.441,38.409,38.560,44.222,-0.23948,-0.08654,0.00269
5.624,0.00651,0.00088,0.00015,0.00241,-0.03207,9.76972,37.441,38.409,38.560,44.332,-0.13092,-0.06097,0.00261
5.634,0.00647,0.00088,0.00015,0.03283,0.01239,9.76117,37.441,38.409,38.559,44.332,-0.10603,0.04769,0.00239
5.644,0.00638,0.00101,0.00020,0.01157,0.01444,9.75825,37.441,38.409,38.559,44.443,-0.02546,0.12456,0.00230
5.654,0.00660,0.00110,0.00011,0.03405,0.02863,9.79326,37.441,38.409,38.559,44.332,-0.12445,0.17658,0.00222
5.664,0.00660,0.00114,0.00002,-0.01740,0.05053,9.74788,37.441,38.409,38.559,44.222,-0.18315,0.08177,0.00247
5.674,0.00629,0.00119,-0.00003,0.02783,0.03087,9.79643,37.441,38.409,38.559,44.443,-0.17960,0.19366,0.00212
5.684,0.00634,0.00097,-0.00012,0.01581,0.04142,9.77663,37.437,38.409,38.559,44.443,-0.23899,0.09866,0.00247
5.694,0.00634,0.00083,-0.00007,0.03443,0.01161,9.75033,37.437,38.409,38.559,44.222,-0.14354,0.15662,0.00227
5.704,0.00616,0.00065,-0.00003,0.02919,-0.01254,9.77898,37.437,38.409,38.559,44.332,-0.03196,0.16403,0.00226
5.714,0.00598,0.00056,-0.00007,-0.01168,0.02184,9.75490,37.437,38.409,38.559,44.222,-0.07467,0.06090,0.00235
5.724,0.00598,0.00056,-0.00003,0.00358,0.00399,9.75868,37.437,38.409,38.559,44.443,0.01331,-0.00755,0.00238
5.734,0.00594,0.00039,0.00002,0.00007,0.03013,9.78546,37.437,38.385,38.559,44.443,-0.09839,-0.00286,0.00237
5.744,0.00580,0.00026,0.00020,-0.01917,0.02301,9.78783,37.437,38.385,38.559,44.332,-0.13371,-0.10921,0.00259
5.754,0.00549,0.00021,0.00033,-0.01111,0.04101,9.74877,37.437,38.385,38.559,44.443,-0.23709,-0.06690,0.00245
5.764,0.00544,0.00017,0.00047,0.03787,0.05305,9.73525,37.437,38.385,38.559,44.332,-0.26501,0.04077,0.00197
5.774,0.00567,0.00004,0.00051,-0.04241,0.00119,9.76975,37.437,38.385,38.559,44.332,-0.19094,-0.04233,0.00230
5.784,0.00531,-0.00001,0.00060,0.01614,0.00048,9.81504,37.437,38.385,38.559,44.443,-0.10043,0.02337,0.00212
5.794,0.00536,-0.00006,0.00060,0.01800,0.00892,9.80777,37.437,38.385,38.559,44.443,-0.04328,0.12014,0.00199
5.804,0.00567,-0.00001,0.00051,-0.01693,0.03488,9.77129,37.437,38.385,38.559,44.553,-0.10979,0.02967,0.00211
5.814,0.00567,0.00012,0.00047,0.03177,-0.00138,9.77692,37.437,38.385,38.559,44.222,-0.04224,0.11937,0.00198
5.824,0.00571,0.00021,0.00038,0.00982,0.04188,9.82243,37.437,38.385,38.559,44.443,-0.14981,0.08634,0.00203
5.834,0.00571,0.00035,0.00029,0.04043,-0.01016,9.76253,37.437,38.385,38.559,44.222,-0.05876,0.15199,0.00191
5.844,0.00567,0.00044,0.00029,-0.00402,-0.01863,9.79294,37.437,38.385,38.559,44.443,0.01897,0.07065,0.00194
5.854,0.00549,0.00044,0.00020,0.03245,0.02714,9.81215,37.437,38.385,38.559,44.443,-0.07481,0.13344,0.00191
5.864,0.00558,0.00062,0.00006,-0.01142,-0.00878,9.77958,37.437,38.385,38.559,44.443,-0.01469,0.03802,0.00198
5.874,0.00589,0.00066,-0.00003,-0.01434,0.03995,9.78615,37.437,38.385,38.559,44.443,-0.11330,-0.01685,0.00204
5.884,0.00589,0.00066,-0.00007,0.02096,0.02693,9.78758,37.440,38.385,38.559,44.332,-0.14749,0.09074,0.00179
5.894,0.00616,0.00066,-0.00020,0.00532,-0.05577,9.78875,37.440,38.385,38.559,44.332,-0.03544,0.07664,0.00182
5.904,0.00620,0.00071,-0.00034,0.00164,-0.05063,9.73081,37.440,38.385,38.559,44.332,0.07451,0.05455,0.00181
5.914,0.00660,0.00066,-0.00047,-0.01259,0.05075,9.79736,37.440,38.385,38.559,44.443,-0.03187,0.01784,0.00180
5.924,0.00660,0.00062,-0.00047,0.03240,0.01014,9.77887,37.440,38.385,38.559,44.332,-0.04969,0.12892,0.00172
5.934,0.00660,0.00057,-0.00052,0.02139,-0.00839,9.78415,37.440,38.401,38.559,44.443,0.06278,0.12477,0.00172
5.944,0.00647,0.00048,-0.00052,-0.00810,0.01114,9.75899,37.440,38.401,38.559,44.443,-0.00426,0.03471,0.00168
5.954,0.00625,0.00044,-0.00047,-0.01709,-0.00552,9.74014,37.440,38.401,38.559,44.443,0.02502,-0.07311,0.00166
5.964,0.00634,0.00039,-0.00047,0.01323,0.01171,9.73898,37.440,38.401,38.559,44.222,-0.03379,0.02140,0.00166
5.974,0.00669,0.00044,-0.00052,-0.02223,-0.01081,9.78357,37.440,38.401,38.559,44.443,0.02638,-0.07257,0.00167
5.984,0.00687,0.00044,-0.00052,0.02331,-0.00949,9.79140,37.440,38.401,38.559,44.443,0.04184,0.03832,0.00174
5.994,0.00701,0.00053,-0.00052,0.00032,0.04431,9.77735,37.440,38.401,38.559,44.332,-0.06942,0.02488,0.00175
6.004,0.00683,0.00062,-0.00056,0.02633,0.00504,9.76560,37.440,38.401,38.559,44.332,-0.03656,0.13187,0.00165
6.014,0.00683,0.00044,-0.00061,-0.01387,-0.00339,9.79482,37.440,38.401,38.559,44.332,-0.00785,0.02333,0.00169
6.024,0.00652,0.00030,-0.00047,-0.02579,-0.03201,9.77040,37.440,38.401,38.559,44.332,0.07581,-0.05138,0.00165
6.034,0.00620,0.00026,-0.00030,0.00252,-0.00637,9.76355,37.440,38.401,38.563,44.332,0.01956,0.04550,0.00173
6.044,0.00594,0.00030,-0.00016,0.00243,0.01834,9.80885,37.440,38.401,38.563,44.332,-0.08967,0.01852,0.00175
6.054,0.00580,0.00043,-0.00025,-0.00728,-0.02531,9.75838,37.440,38.401,38.563,44.332,0.01897,-0.00941,0.00176
6.064,0.00571,0.00070,-0.00020,0.05409,-0.00973,9.72881,37.440,38.401,38.563,44.332,0.03190,0.10136,0.00181
6.074,0.00576,0.00079,-0.00016,0.00936,-0.00392,9.78528,37.440,38.401,38.563,44.332,0.01076,-0.00844,0.00177
6.084,0.00580,0.00066,-0.00007,0.00770,0.07014,9.78770,37.451,38.401,38.563,44.222,-0.10043,0.00569,0.00176
6.094,0.00567,0.00065,-0.00003,0.00088,0.03315,9.76776,37.451,38.401,38.563,44.332,-0.21243,0.00507,0.00175
6.104,0.00553,0.00057,0.00002,0.00949,0.01492,9.79362,37.451,38.401,38.563,44.332,-0.10827,0.04705,0.00164
6.114,0.00553,0.00061,-0.00003,0.01480,0.03673,9.75534,37.451,38.401,38.563,44.443,-0.21328,0.08602,0.00153
6.124,0.00531,0.00070,0.00002,-0.01868,-0.04346,9.76486,37.451,38.401,38.563,44.443,-0.11006,0.04289,0.00165
6.134,0.00527,0.00078,0.00006,-0.01927,-0.03304,9.78370,37.451,38.408,38.563,44.443,-0.01035,-0.00827,0.00169
6.144,0.00522,0.00083,0.00015,-0.04936,0.02917,9.78284,37.451,38.408,38.563,44.332,-0.06604,-0.10570,0.00177
6.154,0.00522,0.00087,0.00006,-0.00930,0.04075,9.77933,37.451,38.408,38.563,44.332,-0.17369,-0.07379,0.00169
6.164,0.00518,0.00092,-0.00011,0.00926,-0.01137,9.73787,37.451,38.408,38.563,44.332,-0.07512,-0.02124,0.00158
6.174,0.00513,0.00092,-0.00029,0.00522,0.03694,9.73680,37.451,38.408,38.563,44.332,-0.17963,0.01691,0.00150
6.184,0.00513,0.00092,-0.00020,-0.00546,-0.01760,9.76317,37.451,38.408,38.563,44.222,-0.07001,-0.00205,0.00153
6.194,0.00504,0.00101,-0.00025,0.00838,-0.01244,9.76481,37.451,38.408,38.563,44.222,0.03475,0.03549,0.00153
6.204,0.00513,0.00119,-0.00038,0.01283,-0.00387,9.78650,37.451,38.408,38.563,44.443,0.00221,0.14228,0.00156
6.214,0.00518,0.00119,-0.00047,0.01891,0.02061,9.74056,37.451,38.408,38.563,44.443,-0.10569,0.11516,0.00158
6.224,0.00513,0.00114,-0.00052,0.01617,-0.01392,9.75521,37.451,38.408,38.563,44.332,0.00480,0.10325,0.00159
6.234,0.00500,0.00128,-0.00061,-0.00576,0.00735,9.76505,37.451,38.408,38.564,44.443,-0.03193,-0.00172,0.00163
6.244,0.00518,0.00132,-0.00061,-0.02015,0.00727,9.78952,37.451,38.408,38.564,44.332,-0.04208,-0.11288,0.00170
6.254,0.00536,0.00132,-0.00065,-0.05551,0.03782,9.75100,37.451,38.408,38.564,44.443,-0.11396,-0.19797,0.00182
6.264,0.00536,0.00154,-0.00065,-0.01060,0.05111,9.78410,37.451,38.408,38.564,44.443,-0.20403,-0.13195,0.00164
6.274,0.00527,0.00154,-0.00074,-0.00638,0.01247,9.80684,37.451,38.408,38.564,44.332,-0.11303,-0.06626,0.00147
6.284,0.00527,0.00128,-0.00078,0.05421,0.01177,9.73151,37.452,38.408,38.564,44.443,-0.10046,0.04464,0.00127
6.294,0.00549,0.00101,-0.00065,0.04151,-0.00362,9.76451,37.452,38.408,38.564,44.332,-0.04226,0.13981,0.00115
6.304,0.00553,0.00088,-0.00052,0.01564,0.01691,9.79605,37.452,38.408,38.564,44.332,-0.12747,0.06710,0.00126
6.314,0.00558,0.00083,-0.00056,0.00101,0.01899,9.77708,37.452,38.408,38.564,44.332,-0.09878,-0.04124,0.00148
6.324,0.00598,0.00088,-0.00065,-0.04347,0.01928,9.78895,37.452,38.408,38.564,44.332,-0.10618,-0.15330,0.00169
6.334,0.00585,0.00105,-0.00061,-0.02543,0.02756,9.79220,37.452,38.421,38.564,44.443,-0.21836,-0.14408,0.00167
6.344,0.00585,0.00136,-0.00070,0.02759,0.02278,9.78602,37.452,38.421,38.564,44.443,-0.18819,-0.03557,0.00129
6.354,0.00602,0.00145,-0.00074,0.03883,-0.01318,9.78425,37.452,38.421,38.564,44.332,-0.10817,0.04374,0.00108
6.364,0.00638,0.00141,-0.00070,0.00144,-0.03945,9.74563,37.452,38.421,38.564,44.332,0.00336,0.03217,0.00111
6.374,0.00611,0.00136,-0.00065,-0.00057,-0.01211,9.78086,37.452,38.421,38.564,44.443,0.10270,-0.02007,0.00106
6.384,0.00616,0.00123,-0.00056,0.04634,-0.00075,9.80191,37.452,38.421,38.564,44.332,0.06662,0.08664,0.00122
6.394,0.00616,0.00127,-0.00056,-0.00616,0.01687,9.74289,37.452,38.421,38.564,44.332,-0.02345,0.01990,0.00120
6.404,0.00616,0.00150,-0.00056,-0.01902,0.01262,9.78024,37.452,38.421,38.564,44.222,-0.06373,-0.08481,0.00129
6.414,0.00625,0.00159,-0.00061,-0.02624,0.00598,9.77060,37.452,38.421,38.564,44.332,-0.02081,-0.18838,0.00136
6.424,0.00616,0.00172,-0.00074,-0.00016,0.01024,9.80446,37.452,38.421,38.564,44.332,-0.04376,-0.07817,0.00131
6.434,0.00620,0.00185,-0.00074,0.01958,-0.02600,9.80434,37.452,38.421,38.563,44.332,0.03671,0.00104,0.00131
6.444,0.00638,0.00190,-0.00065,0.00733,-0.02128,9.76486,37.452,38.421,38.563,44.443,0.13839,0.04945,0.00139
6.454,0.00607,0.00185,-0.00047,0.04001,0.02515,9.76475,37.452,38.421,38.563,44.222,0.04405,0.11056,0.00149
6.464,0.00611,0.00194,-0.00034,-0.02830,0.03184,9.81950,37.452,38.421,38.563,44.443,-0.02809,0.02403,0.00147
6.474,0.00629,0.00176,-0.00016,0.02171,0.00650,9.75794,37.452,38.421,38.563,44.332,-0.03897,0.13579,0.00141
6.484,0.00602,0.00136,-0.00003,0.00456,0.04475,9.77897,37.452,38.421,38.563,44.443,-0.13991,0.08647,0.00149
6.494,0.00580,0.00109,0.00006,0.05747,0.00895,9.79346,37.452,38.421,38.563,44.443,-0.10267,0.19270,0.00126
6.504,0.00598,0.00096,0.00015,-0.00344,0.02784,9.80033,37.452,38.421,38.563,44.443,-0.13336,0.08406,0.00148
6.514,0.00598,0.00100,0.00015,0.01563,0.00027,9.75272,37.452,38.421,38.563,44.332,-0.02115,0.09065,0.00147
6.524,0.00598,0.00105,0.00015,0.03347,0.04779,9.78712,37.452,38.421,38.563,44.443,-0.12541,0.13308,0.00141
6.534,0.00607,0.00119,0.00020,-0.03224,-0.00944,9.76985,37.452,38.413,38.563,44.111,-0.07042,0.03505,0.00158
6.544,0.00598,0.00127,0.00024,0.01088,0.03483,9.77463,37.452,38.413,38.563,44.332,-0.18029,0.05863,0.00153
6.554,0.00620,0.00119,0.00029,-0.00404,-0.00949,9.77158,37.452,38.413,38.563,44.443,-0.07431,0.02164,0.00161
6.564,0.00616,0.00105,0.00020,0.00303,0.01133,9.77632,37.452,38.413,38.563,44.332,0.02656,-0.02762,0.00162
6.574,0.00593,0.00092,0.00015,-0.04236,0.01970,9.79779,37.452,38.413,38.563,44.443,-0.03444,-0.12227,0.00163
6.584,0.00602,0.00092,0.00011,0.01511,-0.00420,9.79737,37.452,38.413,38.563,44.332,-0.00402,-0.01360,0.00159
6.594,0.00629,0.00096,0.00011,0.02938,0.00511,9.77647,37.452,38.413,38.563,44.222,-0.01963,0.09805,0.00156
6.604,0.00625,0.00105,0.00011,-0.00256,-0.01239,9.70365,37.452,38.413,38.563,44.222,0.05110,0.01172,0.00153
6.614,0.00647,0.00114,0.00002,-0.03507,0.00507,9.75850,37.452,38.413,38.563,44.443,0.01223,-0.09278,0.00148
6.624,0.00629,0.00114,-0.00003,-0.01983,0.02709,9.74880,37.452,38.413,38.563,44.332,-0.09797,-0.10806,0.00149
6.634,0.00602,0.00123,-0.00012,-0.04859,0.03298,9.77357,37.452,38.413,38.564,44.332,-0.15088,-0.20611,0.00171
6.644,0.00589,0.00132,-0.00025,-0.00791,0.01587,9.79475,37.452,38.413,38.564,44.332,-0.11271,-0.10097,0.00146
6.654,0.00602,0.00141,-0.00029,0.03648,-0.03630,9.76426,37.452,38.413,38.564,44.443,-0.03240,-0.02327,0.00135
6.664,0.00598,0.00159,-0.00034,-0.04269,0.02080,9.78211,37.452,38.413,38.564,44.332,-0.07348,-0.12743,0.00146
6.674,0.00602,0.00172,-0.00029,-0.00779,-0.01951,9.77121,37.452,38.413,38.564,44.332,0.02914,-0.08277,0.00144
6.684,0.00585,0.00150,-0.00029,-0.00174,0.02317,9.77584,37.475,38.413,38.564,44.222,-0.07339,-0.03767,0.00142
6.694,0.00589,0.00128,-0.00016,-0.04283,-0.00982,9.80921,37.475,38.413,38.564,44.443,-0.01447,-0.13348,0.00149
6.704,0.00593,0.00123,-0.00020,-0.01448,0.02378,9.77136,37.475,38.413,38.564,44.332,-0.11921,-0.09276,0.00144
6.714,0.00607,0.00119,-0.00029,-0.00351,-0.02215,9.77165,37.475,38.413,38.564,44.443,-0.01138,-0.06151,0.00140
6.724,0.00589,0.00114,-0.00043,-0.03030,0.02206,9.77291,37.475,38.413,38.564,44.443,-0.09137,-0.14025,0.00148
6.734,0.00571,0.00132,-0.00052,0.05517,0.01650,9.76567,37.475,38.408,38.564,44.443,-0.09270,-0.02818,0.00130
6.744,0.00580,0.00155,-0.00052,-0.01626,0.04828,9.75876,37.475,38.408,38.564,44.332,-0.19820,-0.06539,0.00140
6.754,0.00585,0.00159,-0.00047,-0.01134,0.04993,9.77847,37.475,38.408,38.564,44.222,-0.31019,-0.06663,0.00140
6.764,0.00593,0.00155,-0.00038,-0.00637,0.02349,9.77260,37.475,38.408,38.564,44.332,-0.19980,-0.04788,0.00133
6.774,0.00598,0.00150,-0.00020,-0.00497,0.00773,9.76103,37.475,38.408,38.564,44.332,-0.08882,-0.03445,0.00129
6.784,0.00602,0.00150,-0.00012,0.00879,0.03424,9.72034,37.475,38.408,38.564,44.222,-0.17713,0.03296,0.00113
6.794,0.00611,0.00159,-0.00007,0.03295,-0.01583,9.81359,37.475,38.408,38.564,44.443,-0.08101,0.08980,0.00100
6.804,0.00607,0.00186,-0.00012,-0.01631,0.03273,9.81473,37.475,38.408,38.564,44.332,-0.13835,-0.00659,0.00118
6.814,0.00598,0.00204,-0.00016,0.00842,0.00761,9.79285,37.475,38.408,38.564,44.332,-0.04176,0.05089,0.00109
6.824,0.00571,0.00195,-0.00020,-0.02082,-0.01373,9.82380,37.475,38.408,38.564,44.332,0.02323,-0.04105,0.00110
6.834,0.00562,0.00186,-0.00016,-0.03344,-0.01475,9.79400,37.475,38.408,38.567,44.332,0.06582,-0.14550,0.00102
6.844,0.00549,0.00186,-0.00011,-0.00995,-0.01061,9.80252,37.475,38.408,38.567,44.222,0.06088,-0.03253,0.00115
6.854,0.00535,0.00190,-0.00007,-0.00529,-0.04396,9.79749,37.475,38.408,38.567,44.443,0.17412,-0.03162,0.00115
6.864,0.00549,0.00203,-0.00007,0.00309,0.00711,9.77514,37.475,38.408,38.567,44.332,0.06396,-0.00625,0.00120
6.874,0.00540,0.00217,-0.00007,0.00247,0.00051,9.75708,37.475,38.408,38.567,44.332,-0.04361,0.02706,0.00120
6.884,0.00558,0.00203,-0.00016,0.00666,0.03019,9.77946,37.450,38.408,38.567,44.332,-0.15575,0.03712,0.00118
6.894,0.00567,0.00172,-0.00034,0.04849,-0.00736,9.76778,37.450,38.408,38.567,44.443,-0.08531,0.12470,0.00099
6.904,0.00562,0.00154,-0.00038,0.01364,-0.02283,9.73836,37.450,38.408,38.567,44.222,0.02427,0.10251,0.00101
6.914,0.00540,0.00141,-0.00043,0.02202,0.00200,9.79013,37.450,38.408,38.567,44.443,-0.06620,0.16874,0.00099
6.924,0.00531,0.00128,-0.00047,0.05341,-0.00114,9.77581,37.450,38.408,38.567,44.332,-0.01565,0.26884,0.00092
6.934,0.00527,0.00128,-0.00034,-0.00450,0.05999,9.77724,37.450,38.404,38.567,44.332,-0.09993,0.19477,0.00100
6.944,0.00535,0.00159,-0.00016,-0.00055,0.01517,9.79036,37.450,38.404,38.567,44.222,-0.09363,0.08253,0.00118
6.954,0.00553,0.00168,-0.00003,-0.01537,0.02082,9.80756,37.450,38.404,38.567,44.443,-0.11172,-0.02886,0.00138
6.964,0.00558,0.00154,0.00015,0.02826,-0.00901,9.80549,37.450,38.404,38.567,44.332,-0.03859,0.05748,0.00127
6.974,0.00531,0.00145,0.00024,-0.03429,-0.00138,9.77583,37.450,38.404,38.567,44.332,-0.01851,-0.05371,0.00132
6.984,0.00553,0.00141,0.00029,-0.00507,0.00362,9.79483,37.450,38.404,38.567,44.222,-0.03105,0.05871,0.00127
6.994,0.00562,0.00128,0.00038,-0.00623,-0.00848,9.73819,37.450,38.404,38.567,44.222,0.04166,-0.02700,0.00126
7.004,0.00562,0.00137,0.00042,-0.04258,0.00817,9.79102,37.450,38.404,38.567,44.332,-0.00040,-0.13146,0.00121
7.014,0.00558,0.00154,0.00056,-0.04270,0.02955,9.75955,37.450,38.404,38.567,44.332,-0.09289,-0.19516,0.00127
7.024,0.00562,0.00141,0.00073,0.01103,-0.00818,9.76681,37.450,38.404,38.567,44.443,-0.03945,-0.09658,0.00114
7.034,0.00580,0.00119,0.00078,0.00772,0.01477,9.75582,37.450,38.404,38.567,44.332,-0.07484,0.00954,0.00102
7.044,0.00593,0.00105,0.00078,-0.04341,0.04006,9.80733,37.450,38.404,38.567,44.443,-0.13304,-0.08662,0.00118
7.054,0.00598,0.00096,0.00078,0.00473,-0.00093,9.77600,37.450,38.404,38.567,44.443,-0.04639,-0.01510,0.00106
7.064,0.00598,0.00088,0.00064,0.00874,0.01451,9.78920,37.450,38.404,38.567,44.222,-0.10299,0.08219,0.00093
7.074,0.00620,0.00074,0.00055,-0.03026,0.04705,9.78444,37.450,38.404,38.567,44.332,-0.16538,-0.01158,0.00115
7.084,0.00620,0.00061,0.00047,-0.01931,0.02768,9.80831,37.456,38.404,38.567,44.443,-0.16129,-0.12449,0.00146
7.094,0.00634,0.00039,0.00038,0.00863,-0.00320,9.77241,37.456,38.404,38.567,44.332,-0.08045,-0.04586,0.00128
7.104,0.00656,0.00017,0.00033,0.02951,0.01642,9.71369,37.456,38.404,38.567,44.332,-0.08878,0.06562,0.00111
7.114,0.00629,-0.00001,0.00033,0.02326,-0.00034,9.77567,37.456,38.404,38.567,44.222,-0.00056,0.13440,0.00106
7.124,0.00620,-0.00006,0.00029,0.01390,-0.03451,9.80194,37.456,38.404,38.567,44.553,0.10807,0.10586,0.00103
7.134,0.00611,-0.00002,0.00038,-0.00737,-0.00212,9.80691,37.456,38.406,38.567,44.443,0.04709,0.01098,0.00090
7.144,0.00611,0.00007,0.00038,0.01912,0.02303,9.77714,37.456,38.406,38.567,44.332,-0.05147,0.06569,0.00089
7.154,0.00594,0.00030,0.00047,0.00124,-0.00705,9.79571,37.456,38.406,38.567,44.332,0.04403,0.00547,0.00089
7.164,0.00598,0.00043,0.00047,-0.03032,-0.01130,9.77952,37.456,38.406,38.567,44.443,0.05759,-0.10653,0.00078
7.174,0.00607,0.00047,0.00042,-0.01427,-0.00034,9.78958,37.456,38.406,38.567,44.332,-0.04675,-0.06334,0.00079
7.184,0.00625,0.00052,0.00033,0.00602,-0.02338,9.71340,37.456,38.406,38.567,44.553,0.05187,-0.01053,0.00077
7.194,0.00616,0.00052,0.00029,-0.01056,0.04576,9.79016,37.456,38.406,38.567,44.443,-0.05890,-0.02830,0.00077
7.204,0.00580,0.00061,0.00024,-0.02096,0.04143,9.79456,37.456,38.406,38.567,44.332,-0.15894,-0.07973,0.00087
7.214,0.00585,0.00074,0.00011,-0.02243,0.01101,9.76978,37.456,38.406,38.567,44.443,-0.06050,-0.13382,0.00097
7.224,0.00585,0.00083,-0.00007,-0.01044,0.00277,9.78878,37.456,38.406,38.567,44.222,-0.00200,-0.03772,0.00092
7.234,0.00593,0.00097,-0.00012,0.02392,-0.00099,9.80624,37.456,38.406,38.568,44.332,0.00295,0.07509,0.00093
7.244,0.00589,0.00114,-0.00029,0.02151,0.01160,9.79249,37.456,38.406,38.568,44.332,-0.08894,0.14094,0.00087
7.254,0.00602,0.00128,-0.00043,-0.01078,-0.00525,9.80048,37.456,38.406,38.568,44.332,-0.03165,0.04325,0.00098
7.264,0.00602,0.00119,-0.00056,0.03576,0.04252,9.80766,37.456,38.406,38.568,44.222,-0.12184,0.11218,0.00089
7.274,0.00602,0.00110,-0.00070,0.01387,0.02057,9.74697,37.456,38.406,38.568,44.332,-0.11847,-0.00060,0.00113
7.284,0.00638,0.00084,-0.00088,0.01948,-0.03268,9.75653,37.468,38.406,38.568,44.443,-0.01306,0.03845,0.00109
7.294,0.00652,0.00061,-0.00092,-0.01773,0.00949,9.75775,37.468,38.406,38.568,44.443,-0.04524,-0.06896,0.00116
7.304,0.00638,0.00052,-0.00088,-0.00864,0.05111,9.77767,37.468,38.406,38.568,44.443,-0.15715,-0.06090,0.00115
7.314,0.00620,0.00052,-0.00074,0.01504,-0.00452,9.81426,37.468,38.406,38.568,44.222,-0.06972,0.00994,0.00102
7.324,0.00656,0.00066,-0.00065,-0.00407,0.01707,9.79597,37.468,38.406,38.568,44.443,-0.14485,-0.07419,0.00117
7.334,0.00683,0.00082,-0.00052,-0.00883,0.03195,9.78461,37.468,38.438,38.568,44.443,-0.24446,-0.02120,0.00100
7.344,0.00683,0.00118,-0.00039,0.01633,0.02573,9.78958,37.468,38.438,38.568,44.332,-0.17374,0.06679,0.00068
7.354,0.00674,0.00154,-0.00016,-0.02832,-0.00221,9.73645,37.468,38.438,38.568,44.332,-0.10368,-0.02082,0.00089
7.364,0.00656,0.00154,0.00002,0.01155,-0.02235,9.77413,37.468,38.438,38.568,44.332,0.00126,0.01877,0.00086
7.374,0.00687,0.00149,0.00020,0.03136,0.03201,9.78036,37.468,38.438,38.568,44.222,-0.08329,0.09263,0.00080
7.384,0.00651,0.00140,0.00033,0.01244,-0.01300,9.81268,37.468,38.438,38.568,44.332,0.02844,0.07859,0.00080
7.394,0.00638,0.00140,0.00033,0.03252,0.04115,9.75539,37.468,38.438,38.568,44.222,-0.07522,0.12171,0.00078
7.404,0.00629,0.00153,0.00038,-0.03053,0.02718,9.81308,37.468,38.438,38.568,44.443,-0.10543,0.01321,0.00095
7.414,0.00611,0.00189,0.00042,-0.03362,0.03095,9.80179,37.468,38.438,38.568,44.443,-0.14369,-0.09307,0.00118
7.424,0.00562,0.00184,0.00047,0.00345,0.00409,9.79084,37.468,38.438,38.568,44.443,-0.06157,-0.01543,0.00103
7.434,0.00558,0.00175,0.00051,0.04220,-0.00279,9.78099,37.468,38.438,38.569,44.332,-0.02947,0.09285,0.00093
7.444,0.00566,0.00175,0.00042,0.00036,0.03439,9.79589,37.468,38.438,38.569,44.332,-0.12949,0.03999,0.00100
7.454,0.00549,0.00166,0.00029,-0.03817,0.02817,9.78892,37.468,38.438,38.569,44.443,-0.14455,-0.07214,0.00126
7.464,0.00549,0.00158,0.00020,0.06738,-0.01852,9.81054,37.468,38.438,38.569,44.443,-0.09049,0.02748,0.00106
7.474,0.00544,0.00153,0.00020,-0.02100,0.02671,9.75322,37.468,38.438,38.569,44.332,-0.13596,-0.07576,0.00127
7.484,0.00567,0.00131,0.00015,0.02749,-0.00255,9.78776,37.464,38.438,38.569,44.222,-0.07529,0.01941,0.00109
7.494,0.00593,0.00100,0.00002,0.01353,0.02957,9.80161,37.464,38.438,38.569,44.332,-0.17182,0.07844,0.00096
7.504,0.00585,0.00078,-0.00003,-0.03009,0.04502,9.75027,37.464,38.438,38.569,44.443,-0.21027,-0.02738,0.00131
7.514,0.00616,0.00073,-0.00003,0.00738,0.00256,9.77800,37.464,38.438,38.569,44.443,-0.10444,0.01090,0.00120
7.524,0.00651,0.00078,-0.00003,-0.00370,0.02355,9.78186,37.464,38.438,38.569,44.222,-0.18518,-0.06757,0.00140
7.534,0.00660,0.00092,-0.00003,0.00398,0.02710,9.78349,37.464,38.424,38.569,44.332,-0.15370,0.04056,0.00108
7.544,0.00638,0.00123,0.00002,0.02913,-0.02124,9.81802,37.464,38.424,38.569,44.332,-0.05145,0.08823,0.00099
7.554,0.00669,0.00154,0.00011,0.00412,-0.01020,9.76117,37.464,38.424,38.569,44.222,0.04606,0.03213,0.00099
7.564,0.00665,0.00154,0.00024,-0.06828,-0.00596,9.78696,37.464,38.424,38.569,44.443,0.04313,-0.08046,0.00090
7.574,0.00651,0.00136,0.00042,-0.00541,0.01233,9.76060,37.464,38.424,38.569,44.443,-0.06039,-0.03684,0.00090
7.584,0.00660,0.00114,0.00055,0.02729,0.02688,9.75263,37.464,38.424,38.569,44.222,-0.11006,0.06351,0.00074
7.594,0.00660,0.00105,0.00046,-0.00074,0.02035,9.73042,37.464,38.424,38.569,44.222,-0.12590,-0.04672,0.00095
7.604,0.00660,0.00114,0.00037,0.01249,-0.00239,9.77081,37.464,38.424,38.569,44.111,-0.04130,0.02582,0.00085
7.614,0.00651,0.00136,0.00033,0.05379,-0.02501,9.75141,37.464,38.424,38.569,44.332,0.01922,0.11916,0.00082
7.624,0.00633,0.00145,0.00029,0.00691,-0.02316,9.77894,37.464,38.424,38.569,44.332,0.11159,0.05672,0.00074
7.634,0.00633,0.00140,0.00038,-0.01046,-0.02071,9.76799,37.464,38.424,38.568,44.001,0.12087,-0.05443,0.00052
7.644,0.00611,0.00132,0.00038,0.00545,-0.02324,9.75883,37.464,38.424,38.568,44.332,0.14063,0.05522,0.00076
7.654,0.00598,0.00123,0.00038,0.00099,0.04820,9.79180,37.464,38.424,38.568,44.443,0.02954,0.04223,0.00074
7.664,0.00584,0.00105,0.00033,-0.02449,0.01907,9.77657,37.464,38.424,38.568,44.332,-0.03824,-0.04685,0.00074
7.674,0.00589,0.00096,0.00038,0.02361,0.00046,9.78291,37.464,38.424,38.568,44.332,-0.01711,0.06323,0.00069
7.684,0.00562,0.00087,0.00024,0.00122,0.00209,9.77395,37.459,38.424,38.568,44.332,-0.00745,-0.04844,0.00071
7.694,0.00562,0.00069,0.00011,-0.03648,0.01476,9.79181,37.459,38.424,38.568,44.332,-0.05595,-0.14980,0.00076
7.704,0.00571,0.00069,-0.00012,0.02845,0.01435,9.78848,37.459,38.424,38.568,44.332,-0.06590,-0.03771,0.00063
7.714,0.00558,0.00082,-0.00025,-0.00132,0.02353,9.76780,37.459,38.424,38.568,44.332,-0.16968,0.00536,0.00055
7.724,0.00531,0.00091,-0.00025,0.02760,0.03189,9.75743,37.459,38.424,38.568,44.332,-0.18219,0.11672,0.00021
7.734,0.00522,0.00092,-0.00020,0.00609,-0.02009,9.78133,37.459,38.413,38.568,44.443,-0.07390,0.08745,0.00027
7.744,0.00513,0.00109,-0.00020,-0.01604,-0.03767,9.76484,37.459,38.413,38.568,44.332,0.02149,0.02871,0.00030
7.754,0.00509,0.00127,-0.00016,0.00527,-0.01626,9.78171,37.459,38.413,38.568,44.443,0.13360,0.03197,0.00030
7.764,0.00495,0.00114,-0.00007,-0.05037,0.02448,9.76115,37.459,38.413,38.568,44.443,0.06127,-0.05349,0.00015
7.774,0.00500,0.00105,-0.00007,-0.00027,-0.00557,9.78243,37.459,38.413,38.568,44.222,0.00714,0.04469,0.00021
7.784,0.00509,0.00092,-0.00007,-0.04819,0.01548,9.81830,37.459,38.413,38.568,44.332,-0.02509,-0.06302,0.00022
7.794,0.00527,0.00092,-0.00002,-0.02994,0.02436,9.77089,37.459,38.413,38.568,44.332,-0.10631,-0.14061,0.00031
7.804,0.00549,0.00101,-0.00007,0.01232,-0.01968,9.76849,37.459,38.413,38.568,44.332,-0.02538,-0.06291,0.00022
7.814,0.00589,0.00123,0.00002,-0.02066,0.01040,9.81000,37.459,38.413,38.568,44.222,-0.08419,-0.15897,0.00031
7.824,0.00598,0.00123,-0.00003,-0.01714,-0.02108,9.79531,37.459,38.413,38.568,44.443,0.02438,-0.12825,0.00030
7.834,0.00593,0.00105,0.00011,0.00354,-0.00016,9.78121,37.459,38.413,38.571,44.332,0.00684,-0.01682,0.00033
7.844,0.00576,0.00101,0.00011,0.00719,-0.01052,9.76842,37.459,38.413,38.571,44.443,0.08352,0.06559,0.00039
7.854,0.00589,0.00096,0.00002,0.01989,-0.00425,9.76321,37.459,38.413,38.571,44.443,-0.00112,0.13945,0.00044
7.864,0.00611,0.00092,-0.00012,0.03661,0.04437,9.78354,37.459,38.413,38.571,44.443,-0.10911,0.17074,0.00041
7.874,0.00616,0.00088,-0.00016,0.01402,-0.00198,9.77363,37.459,38.413,38.571,44.443,-0.01852,0.10429,0.00048
7.884,0.00634,0.00088,-0.00016,0.04215,0.03900,9.76750,37.471,38.413,38.571,44.443,-0.11133,0.16739,0.00041
7.894,0.00647,0.00074,-0.00039,-0.02897,-0.02513,9.77075,37.471,38.413,38.571,44.664,-0.04309,0.07841,0.00053
7.904,0.00652,0.00061,-0.00043,-0.01493,-0.00880,9.78640,37.471,38.413,38.571,44.332,0.01256,-0.01914,0.00056
7.914,0.00638,0.00065,-0.00034,-0.01485,-0.00620,9.76066,37.471,38.413,38.571,44.443,0.04958,-0.12492,0.00050
7.924,0.00634,0.00070,-0.00030,0.03652,0.03615,9.73613,37.471,38.413,38.571,44.332,-0.01858,-0.03662,0.00052
7.934,0.00594,0.00055,-0.00034,0.00703,0.00443,9.76472,37.471,38.445,38.571,44.332,-0.02916,0.07439,0.00048
7.944,0.00558,0.00055,-0.00043,-0.00455,0.03121,9.77941,37.471,38.445,38.571,44.332,-0.12251,0.01301,0.00057
7.954,0.00562,0.00059,-0.00043,-0.05470,0.01841,9.79654,37.471,38.445,38.571,44.443,-0.11752,-0.09901,0.00080
7.964,0.00594,0.00042,-0.00047,0.01713,-0.00234,9.77043,37.471,38.445,38.571,44.332,-0.05592,-0.00538,0.00066
7.974,0.00598,0.00015,-0.00034,0.02688,-0.00154,9.74634,37.471,38.445,38.571,44.332,-0.01466,0.09840,0.00060
7.984,0.00598,-0.00003,-0.00021,-0.01921,-0.00616,9.78637,37.471,38.445,38.571,44.222,0.01152,-0.01043,0.00060
7.994,0.00607,-0.00007,-0.00016,-0.05280,-0.00733,9.78422,37.471,38.445,38.571,44.332,0.02322,-0.12195,0.00057
8.004,0.00612,-0.00003,-0.00016,0.02250,-0.00643,9.79098,37.471,38.445,38.571,44.332,0.02959,-0.00974,0.00062
8.014,0.00612,0.00002,-0.00016,-0.04863,-0.03034,9.77511,37.471,38.445,38.571,44.332,0.08284,-0.10865,0.00052
8.024,0.00634,0.00019,-0.00007,-0.02915,0.02589,9.76445,37.471,38.445,38.571,44.332,-0.02556,-0.13746,0.00051
8.034,0.00638,0.00033,0.00006,0.02910,0.03042,9.77192,37.471,38.445,38.572,44.443,-0.07540,-0.03702,0.00042
8.044,0.00638,0.00037,0.00011,0.00986,0.02824,9.76019,37.471,38.445,38.572,44.443,-0.15261,0.04401,0.00026
8.054,0.00634,0.00037,0.00020,-0.00897,-0.03015,9.80825,37.471,38.445,38.572,44.443,-0.04475,0.01237,0.00031
8.064,0.00683,0.00042,0.00028,-0.02357,-0.00765,9.81692,37.471,38.445,38.572,44.443,0.01294,-0.08442,0.00033
8.074,0.00714,0.00042,0.00033,0.02173,0.02884,9.78436,37.471,38.445,38.572,44.332,-0.06055,0.00109,0.00029
8.084,0.00700,0.00037,0.00033,-0.02034,-0.00012,9.76141,37.450,38.445,38.572,44.222,-0.00962,-0.09912,0.00035
8.094,0.00674,0.00033,0.00037,0.03002,-0.00573,9.74557,37.450,38.445,38.572,44.332,0.00774,0.01147,0.00034
8.104,0.00696,0.00033,0.00037,0.03321,0.00823,9.77647,37.450,38.445,38.572,44.443,-0.02501,0.11860,0.00033
8.114,0.00692,0.00037,0.00042,-0.00562,0.02543,9.77460,37.450,38.445,38.572,44.553,-0.09598,0.03190,0.00041
8.124,0.00683,0.00042,0.00051,-0.01544,-0.00719,9.81092,37.450,38.445,38.572,44.443,-0.01175,-0.04262,0.00047
8.134,0.00687,0.00043,0.00055,0.04661,0.01151,9.79421,37.450,38.402,38.572,44.443,-0.03134,0.06838,0.00042
8.144,0.00678,0.00061,0.00060,-0.03054,0.01091,9.76733,37.450,38.402,38.572,44.332,-0.04608,-0.04314,0.00049
8.154,0.00638,0.00070,0.00064,0.02646,0.01589,9.79731,37.450,38.402,38.572,44.443,-0.07208,0.06659,0.00037
8.164,0.00602,0.00070,0.00060,-0.03346,0.01143,9.81838,37.450,38.402,38.572,44.443,-0.06978,-0.04633,0.00050
8.174,0.00585,0.00065,0.00047,-0.00808,0.03045,9.79306,37.450,38.402,38.572,44.332,-0.18285,-0.04730,0.00050
8.184,0.00576,0.00070,0.00024,0.00128,0.02820,9.77784,37.450,38.402,38.572,44.222,-0.14836,0.06023,0.00019
8.194,0.00553,0.00070,0.00011,0.00252,0.02474,9.77022,37.450,38.402,38.572,44.443,-0.14023,-0.05218,0.00048
8.204,0.00527,0.00083,-0.00003,-0.03812,0.03307,9.76276,37.450,38.402,38.572,44.443,-0.17391,-0.15945,0.00076
8.214,0.00558,0.00110,-0.00012,-0.03850,-0.01591,9.80765,37.450,38.402,38.572,44.332,-0.06433,-0.18634,0.00081
8.224,0.00585,0.00124,-0.00021,-0.00100,-0.00637,9.77520,37.450,38.402,38.572,44.222,-0.00901,-0.08815,0.00075
8.234,0.00576,0.00128,-0.00021,0.02054,-0.00567,9.79539,37.450,38.402,38.573,44.222,0.01341,0.02251,0.00076
8.244,0.00553,0.00128,-0.00025,-0.03186,0.01863,9.78578,37.450,38.402,38.573,44.332,-0.04370,-0.07493,0.00077
8.254,0.00544,0.00123,-0.00025,-0.00839,-0.00110,9.77071,37.450,38.402,38.573,44.222,0.05657,-0.02345,0.00079
8.264,0.00522,0.00114,-0.00025,-0.01294,-0.04982,9.79507,37.450,38.402,38.573,44.332,0.16679,-0.04797,0.00073
8.274,0.00509,0.00119,-0.00029,-0.03493,0.02314,9.76765,37.450,38.402,38.573,44.222,0.06678,-0.09984,0.00063
8.284,0.00518,0.00132,-0.00038,0.02948,0.03880,9.74896,37.467,38.402,38.573,44.332,-0.01551,-0.02361,0.00066
8.294,0.00571,0.00119,-0.00047,0.00449,-0.01246,9.77324,37.467,38.402,38.573,44.443,0.08218,0.03146,0.00070
8.304,0.00580,0.00110,-0.00052,-0.01372,-0.00844,9.77435,37.467,38.402,38.573,44.332,0.05073,-0.07619,0.00058
8.314,0.00585,0.00101,-0.00047,0.03063,0.02246,9.79689,37.467,38.402,38.573,44.443,-0.01460,0.01539,0.00061
8.324,0.00562,0.00092,-0.00043,0.03786,-0.01409,9.74324,37.467,38.402,38.573,44.443,0.03304,0.11670,0.00064
8.334,0.00549,0.00083,-0.00038,0.00029,0.01361,9.77831,37.467,38.420,38.573,44.332,-0.04543,0.03671,0.00065
8.344,0.00518,0.00091,-0.00034,0.03345,-0.00375,9.75201,37.467,38.420,38.573,44.443,-0.00198,0.13965,0.00060
8.354,0.00496,0.00096,-0.00034,0.01777,0.00309,9.78689,37.467,38.420,38.573,44.111,-0.04816,0.03761,0.00066
8.364,0.00504,0.00083,-0.00043,-0.00189,0.00055,9.78239,37.467,38.420,38.573,44.443,0.02794,-0.04477,0.00067
8.374,0.00513,0.00074,-0.00043,-0.02180,-0.00210,9.74734,37.467,38.420,38.573,44.443,0.00740,-0.15461,0.00064
8.384,0.00513,0.00065,-0.00043,-0.02781,0.00713,9.77340,37.467,38.420,38.573,44.443,-0.10281,-0.17350,0.00065
8.394,0.00518,0.00065,-0.00052,-0.00344,0.00548,9.76949,37.467,38.420,38.573,44.332,-0.05601,-0.07197,0.00053
8.404,0.00513,0.00060,-0.00056,0.03021,0.03047,9.78237,37.467,38.420,38.573,44.443,-0.10545,0.02852,0.00038
8.414,0.00509,0.00051,-0.00056,-0.02351,0.03786,9.76803,37.467,38.420,38.573,44.443,-0.16968,-0.06314,0.00061
8.424,0.00514,0.00038,-0.00052,-0.02981,0.00069,9.80840,37.467,38.420,38.573,44.332,-0.07629,-0.12573,0.00074
8.434,0.00518,0.00029,-0.00034,-0.04134,0.00545,9.77898,37.467,38.420,38.573,44.332,-0.03629,-0.23081,0.00085
8.444,0.00527,0.00038,-0.00029,-0.00516,0.00712,9.80687,37.467,38.420,38.573,44.443,-0.03926,-0.11798,0.00078
8.454,0.00536,0.00060,-0.00029,-0.04887,0.02224,9.77644,37.467,38.420,38.573,44.443,-0.09292,-0.21714,0.00088
8.464,0.00562,0.00083,-0.00029,-0.02792,-0.01514,9.77070,37.467,38.420,38.573,44.222,0.01508,-0.18541,0.00087
8.474,0.00576,0.00105,-0.00025,0.00849,0.01325,9.75865,37.467,38.420,38.573,44.553,-0.02615,-0.08100,0.00085
8.484,0.00571,0.00141,-0.00012,-0.01121,0.03424,9.79182,37.429,38.420,38.573,44.332,-0.13821,-0.07109,0.00084
8.494,0.00544,0.00167,-0.00003,0.02339,-0.00424,9.75599,37.429,38.420,38.573,44.332,-0.06912,0.01723,0.00068
8.504,0.00549,0.00185,-0.00007,0.01985,0.03600,9.75013,37.429,38.420,38.573,44.222,-0.16079,0.08121,0.00055
8.514,0.00553,0.00198,-0.00003,-0.01469,-0.02458,9.77282,37.429,38.420,38.573,44.443,-0.06275,0.02739,0.00065
8.524,0.00540,0.00207,0.00015,-0.01361,-0.05561,9.78706,37.429,38.420,38.573,44.443,0.04530,-0.00241,0.00065
8.534,0.00544,0.00212,0.00029,-0.01858,0.00574,9.78631,37.429,38.409,38.573,44.443,-0.02161,-0.09259,0.00064
8.544,0.00571,0.00248,0.00029,-0.00034,-0.05031,9.83252,37.429,38.409,38.573,44.443,0.08634,-0.06153,0.00065
8.554,0.00535,0.00270,0.00020,0.03163,0.01431,9.76558,37.429,38.409,38.573,44.443,0.02269,0.03081,0.00074
8.564,0.00531,0.00243,0.00011,0.01444,0.03100,9.76582,37.429,38.409,38.573,44.443,-0.08566,0.05934,0.00072
8.574,0.00504,0.00212,0.00015,0.01455,0.03434,9.72921,37.429,38.409,38.573,44.443,-0.19432,0.08389,0.00066
8.584,0.00508,0.00185,0.00024,0.01440,0.01096,9.73939,37.429,38.409,38.573,44.443,-0.08328,0.08457,0.00066
8.594,0.00486,0.00167,0.00029,-0.01834,0.02297,9.77295,37.429,38.409,38.573,44.332,-0.11203,-0.02289,0.00084
8.604,0.00473,0.00167,0.00029,-0.04065,-0.02481,9.79321,37.429,38.409,38.573,44.443,-0.02632,-0.09454,0.00093
8.614,0.00459,0.00176,0.00020,-0.01177,0.00973,9.80964,37.429,38.409,38.573,44.443,-0.11204,-0.02210,0.00084
8.624,0.00477,0.00163,0.00011,-0.01153,-0.00908,9.80693,37.429,38.409,38.573,44.332,-0.00335,-0.05193,0.00087
8.634,0.00486,0.00127,0.00015,0.03010,0.03740,9.78998,37.429,38.409,38.573,44.443,-0.08084,0.03007,0.00081
8.644,0.00486,0.00114,0.00015,-0.00131,-0.00226,9.74421,37.429,38.409,38.575,44.332,0.02333,-0.01172,0.00082
8.654,0.00477,0.00109,0.00011,-0.00837,-0.00682,9.78321,37.429,38.409,38.575,44.443,0.06899,-0.11438,0.00074
8.664,0.00469,0.00123,-0.00007,-0.00565,0.00004,9.75906,37.429,38.409,38.575,44.332,-0.00372,-0.02909,0.00079
8.674,0.00437,0.00127,-0.00016,0.04819,0.03881,9.80372,37.429,38.409,38.575,44.443,-0.06935,0.06232,0.00073
8.684,0.00464,0.00158,-0.00007,0.03948,0.01583,9.73223,37.369,38.409,38.575,44.443,-0.08487,0.17308,0.00058
8.694,0.00455,0.00194,-0.00007,0.04358,0.01524,9.77085,37.369,38.409,38.575,44.443,-0.09092,0.28476,0.00040
8.704,0.00482,0.00199,-0.00016,0.01626,0.00457,9.77481,37.369,38.409,38.575,44.222,-0.05504,0.17874,0.00053
8.714,0.00482,0.00199,-0.00029,0.03056,-0.00326,9.79462,37.369,38.409,38.575,44.443,0.05723,0.17877,0.00054
8.724,0.00508,0.00190,-0.00029,-0.01250,0.02605,9.75487,37.369,38.409,38.575,44.443,-0.01445,0.09277,0.00050
8.734,0.00513,0.00177,-0.00034,-0.00466,-0.02331,9.77446,37.369,38.409,38.575,44.443,0.07321,0.02306,0.00047
8.744,0.00504,0.00180,-0.00043,-0.02103,0.02065,9.77577,37.369,38.425,38.575,44.443,-0.01628,-0.04436,0.00044
8.754,0.00499,0.00207,-0.00043,-0.00465,-0.02180,9.76682,37.369,38.425,38.575,44.332,0.09488,-0.03119,0.00045
8.764,0.00535,0.00207,-0.00052,0.03740,0.00261,9.80587,37.369,38.425,38.575,44.443,0.04949,0.07169,0.00059
8.774,0.00544,0.00176,-0.00061,0.00792,0.04450,9.80713,37.369,38.425,38.575,44.332,-0.06302,0.06245,0.00059
8.784,0.00562,0.00163,-0.00070,-0.00991,-0.03300,9.76404,37.369,38.425,38.575,44.443,0.03886,0.01455,0.00061
8.794,0.00571,0.00145,-0.00065,-0.01542,0.03721,9.77370,37.369,38.425,38.575,44.222,-0.06528,-0.02798,0.00062
8.804,0.00598,0.00132,-0.00056,-0.06258,0.00406,9.78131,37.369,38.425,38.575,44.222,-0.05161,-0.13966,0.00074
8.814,0.00575,0.00132,-0.00061,0.02092,0.03190,9.78394,37.369,38.425,38.575,44.443,-0.10323,-0.03961,0.00061
8.824,0.00598,0.00132,-0.00065,0.02644,0.03226,9.75621,37.369,38.425,38.575,44.443,-0.14865,0.06302,0.00038
8.834,0.00602,0.00105,-0.00070,-0.00477,-0.01486,9.77603,37.369,38.425,38.575,44.332,-0.04395,0.02261,0.00046
8.844,0.00611,0.00083,-0.00070,-0.02255,-0.00783,9.75943,37.369,38.425,38.577,44.443,0.01222,-0.07427,0.00050
8.854,0.00593,0.00078,-0.00074,0.00560,-0.00747,9.76960,37.369,38.425,38.577,44.332,0.04386,0.03311,0.00055
8.864,0.00571,0.00083,-0.00061,-0.00203,0.00902,9.79240,37.369,38.425,38.577,44.332,-0.05792,-0.01425,0.00056
8.874,0.00584,0.00083,-0.00043,-0.02217,0.01986,9.77537,37.369,38.425,38.577,44.222,-0.10857,-0.11442,0.00071
8.884,0.00593,0.00092,-0.00038,-0.01745,-0.00783,9.74015,37.369,38.425,38.577,44.332,0.00282,-0.10595,0.00071
8.894,0.00558,0.00109,-0.00034,0.01393,0.03299,9.78832,37.467,38.425,38.577,44.443,-0.07811,-0.02850,0.00066
8.904,0.00540,0.00105,-0.00034,0.02429,0.01461,9.76635,37.467,38.425,38.577,44.553,-0.08310,0.08331,0.00050
8.914,0.00536,0.00091,-0.00034,-0.02113,0.02681,9.78418,37.467,38.425,38.577,44.443,-0.12079,-0.02228,0.00069
8.924,0.00527,0.00082,-0.00034,0.00929,0.02952,9.79918,37.467,38.425,38.577,44.443,-0.18380,0.07092,0.00045
8.934,0.00509,0.00073,-0.00029,-0.04738,0.05911,9.77907,37.467,38.425,38.577,44.443,-0.23135,-0.03103,0.00082
8.944,0.00491,0.00065,-0.00020,0.00853,0.00828,9.76430,37.467,38.403,38.577,44.443,-0.12873,0.01450,0.00067
8.954,0.00482,0.00061,-0.00011,0.00853,0.00410,9.77639,37.467,38.403,38.577,44.332,-0.02239,0.05054,0.00062
8.964,0.00478,0.00056,0.00002,0.02850,0.02914,9.73493,37.467,38.403,38.577,44.443,-0.11020,0.11954,0.00054
8.974,0.00482,0.00052,0.00006,-0.00726,-0.02494,9.75355,37.467,38.403,38.577,44.332,-0.01597,0.06001,0.00061
8.984,0.00473,0.00043,0.00011,-0.01729,0.00794,9.75052,37.467,38.403,38.577,44.332,-0.03672,-0.04928,0.00066
8.994,0.00518,0.00038,0.00006,-0.02258,0.02900,9.75441,37.467,38.403,38.577,44.443,-0.13101,-0.10809,0.00074
9.004,0.00522,0.00034,0.00002,0.03164,-0.01870,9.76455,37.467,38.403,38.577,44.443,-0.06054,-0.02209,0.00059
9.014,0.00509,0.00025,0.00006,0.01059,-0.00396,9.76759,37.467,38.403,38.577,44.222,0.01794,0.05680,0.00056
9.024,0.00496,0.00016,0.00015,0.03505,-0.02126,9.78910,37.467,38.403,38.577,44.443,0.08308,0.14751,0.00064
9.034,0.00496,0.00034,0.00020,-0.03905,0.01235,9.76689,37.467,38.403,38.577,44.222,0.04046,0.04432,0.00054
9.044,0.00500,0.00047,0.00020,-0.00620,0.00169,9.79483,37.467,38.403,38.579,44.332,-0.01891,-0.05071,0.00052
9.054,0.00491,0.00056,0.00015,0.00044,0.02901,9.79230,37.467,38.403,38.579,44.222,-0.12483,-0.01328,0.00046
9.064,0.00487,0.00074,0.00006,0.01145,0.02404,9.75981,37.467,38.403,38.579,44.443,-0.14706,0.09658,0.00020
9.074,0.00513,0.00088,-0.00012,0.02270,-0.01610,9.76932,37.467,38.403,38.579,44.443,-0.03630,0.11336,0.00017
9.084,0.00522,0.00105,-0.00029,-0.00391,-0.01758,9.76318,37.467,38.403,38.579,44.332,0.04370,0.03515,0.00016
9.094,0.00522,0.00132,-0.00043,0.00730,0.04361,9.77497,37.477,38.403,38.579,44.222,-0.06820,0.03800,0.00016
9.104,0.00513,0.00119,-0.00047,0.01368,-0.00507,9.77083,37.477,38.403,38.579,44.332,0.03457,0.08232,0.00015
9.114,0.00527,0.00106,-0.00056,-0.00131,-0.00720,9.75791,37.477,38.403,38.579,44.443,0.04412,-0.02899,0.00009
9.124,0.00509,0.00092,-0.00070,-0.00657,0.06502,9.79771,37.477,38.403,38.579,44.443,-0.06802,-0.03149,0.00009
9.134,0.00500,0.00088,-0.00079,0.00156,-0.00167,9.79689,37.477,38.403,38.579,44.332,0.03171,0.02056,0.00009
9.144,0.00500,0.00096,-0.00088,0.00850,0.01667,9.74818,37.477,38.433,38.579,44.443,-0.07756,0.04532,0.00008
9.154,0.00531,0.00113,-0.00088,0.03825,0.03594,9.78439,37.477,38.433,38.579,44.443,-0.14453,0.13535,-0.00009
9.164,0.00540,0.00100,-0.00079,-0.00737,0.01271,9.76622,37.477,38.433,38.579,44.222,-0.10366,0.03099,0.00015
9.174,0.00531,0.00073,-0.00079,-0.01150,0.02428,9.79750,37.477,38.433,38.579,44.222,-0.14453,-0.07375,0.00038
9.184,0.00558,0.00056,-0.00070,0.02433,0.03998,9.77707,37.477,38.433,38.579,44.332,-0.18762,0.03009,0.00008
9.194,0.00567,0.00047,-0.00070,-0.00508,-0.00663,9.82705,37.477,38.433,38.579,44.443,-0.07882,0.00138,0.00016
9.204,0.00549,0.00042,-0.00061,0.00294,-0.01552,9.78209,37.477,38.433,38.579,44.443,0.03326,0.01185,0.00015
9.214,0.00545,0.00047,-0.00043,-0.00690,-0.01161,9.72212,37.477,38.433,38.579,44.332,0.09540,-0.08101,0.00005
9.224,0.00536,0.00051,-0.00029,0.02685,0.01817,9.78886,37.477,38.433,38.579,44.553,0.02298,0.00448,0.00014
9.234,0.00567,0.00078,-0.00025,-0.04527,0.00736,9.78980,37.477,38.433,38.579,44.443,-0.00377,-0.10457,0.00012
9.244,0.00576,0.00096,-0.00016,-0.02963,-0.00021,9.76619,37.477,38.433,38.580,44.443,0.00430,-0.21641,0.00012
9.254,0.00580,0.00109,-0.00007,-0.02013,0.00649,9.78509,37.477,38.433,38.580,44.443,-0.03998,-0.11322,0.00008
9.264,0.00576,0.00113,-0.00003,0.02658,-0.01987,9.77579,37.477,38.433,38.580,44.222,0.01646,-0.01615,0.00007
9.274,0.00580,0.00109,0.00006,0.00967,-0.02127,9.75964,37.477,38.433,38.580,44.332,0.10941,0.04637,0.00013
9.284,0.00553,0.00118,0.00002,0.01591,-0.00155,9.78208,37.477,38.433,38.580,44.332,0.00776,0.09381,0.00019
9.294,0.00540,0.00118,0.00002,0.01284,0.00601,9.75710,37.397,38.433,38.580,44.443,-0.09511,0.04975,0.00021
9.304,0.00567,0.00100,0.00015,-0.05500,-0.03102,9.82374,37.397,38.433,38.580,44.443,-0.02811,-0.04021,0.00031
9.314,0.00580,0.00095,0.00020,-0.00266,-0.00098,9.78682,37.397,38.433,38.580,44.332,0.06272,0.02590,0.00033
9.324,0.00598,0.00087,0.00024,0.00819,0.00368,9.76634,37.397,38.433,38.580,44.443,-0.04580,0.05439,0.00033
9.334,0.00607,0.00082,0.00020,-0.00715,0.00341,9.73933,37.397,38.433,38.580,44.332,-0.01705,-0.05351,0.00039
9.344,0.00602,0.00087,0.00002,-0.03366,-0.01488,9.75580,37.397,38.423,38.580,44.443,0.04833,-0.14381,0.00036
9.354,0.00611,0.00096,-0.00016,0.04005,-0.02271,9.79798,37.397,38.423,38.580,44.222,0.07274,-0.03453,0.00048
9.364,0.00585,0.00069,-0.00030,0.03096,-0.03095,9.77587,37.397,38.423,38.580,44.332,0.12307,0.06556,0.00064
9.374,0.00580,0.00051,-0.00043,0.00610,0.00682,9.79566,37.397,38.423,38.580,44.443,0.01254,0.04529,0.00063
9.384,0.00567,0.00047,-0.00056,0.00018,-0.00296,9.76031,37.397,38.423,38.580,44.443,0.02466,-0.06616,0.00059
9.394,0.00611,0.00052,-0.00061,-0.01418,-0.03836,9.78174,37.397,38.423,38.580,44.222,0.13648,-0.07559,0.00058
9.404,0.00620,0.00056,-0.00070,0.01214,0.02107,9.78798,37.397,38.423,38.580,44.222,0.03857,-0.02032,0.00067
9.414,0.00638,0.00061,-0.00074,0.00901,-0.00243,9.77281,37.397,38.423,38.580,44.443,0.00309,0.08627,0.00072
9.424,0.00660,0.00092,-0.00074,-0.00990,0.00228,9.75420,37.397,38.423,38.580,44.332,-0.00963,-0.02501,0.00073
9.434,0.00642,0.00114,-0.00079,0.00816,0.03329,9.78226,37.397,38.423,38.580,44.443,-0.11402,0.01599,0.00069
9.444,0.00625,0.00123,-0.00083,0.00332,-0.01513,9.78290,37.397,38.423,38.581,44.332,-0.00178,0.01790,0.00070
9.454,0.00580,0.00132,-0.00074,0.03929,0.01902,9.76881,37.397,38.423,38.581,44.664,-0.05325,0.11755,0.00066
9.464,0.00562,0.00141,-0.00065,-0.05163,0.02758,9.77560,37.397,38.423,38.581,44.443,-0.08128,0.00893,0.00079
9.474,0.00575,0.00141,-0.00056,0.03057,0.00548,9.76763,37.397,38.423,38.581,44.332,-0.05024,0.11660,0.00066
9.484,0.00575,0.00163,-0.00038,0.03538,0.01939,9.78004,37.397,38.423,38.581,44.332,-0.11451,0.20852,0.00054
9.494,0.00584,0.00185,-0.00021,0.01118,0.02813,9.72119,37.493,38.423,38.581,44.222,-0.15221,0.10369,0.00078
9.504,0.00576,0.00172,-0.00016,0.01702,0.01295,9.75225,37.493,38.423,38.581,44.443,-0.04113,0.09833,0.00079
9.514,0.00607,0.00158,-0.00007,-0.01252,-0.01721,9.78807,37.493,38.423,38.581,44.443,0.02997,0.01231,0.00080
9.524,0.00593,0.00145,-0.00003,0.02074,0.01995,9.76751,37.493,38.423,38.581,44.332,-0.05958,0.07892,0.00078
9.534,0.00585,0.00140,0.00002,0.02569,0.01360,9.80295,37.493,38.423,38.581,44.443,-0.08977,0.18693,0.00063
9.544,0.00571,0.00139,0.00006,0.01823,0.00646,9.75953,37.493,38.454,38.581,44.443,-0.02886,0.09302,0.00073
9.554,0.00571,0.00148,0.00002,0.01701,0.03912,9.77423,37.493,38.454,38.581,44.443,-0.14077,0.09675,0.00073
9.564,0.00589,0.00148,0.00002,0.01226,0.00843,9.79488,37.493,38.454,38.581,44.222,-0.03245,0.06712,0.00076
9.574,0.00607,0.00117,0.00006,0.05962,-0.01174,9.79800,37.493,38.454,38.581,44.332,0.00560,0.17312,0.00074
9.584,0.00647,0.00090,0.00002,0.01700,-0.02232,9.76571,37.493,38.454,38.581,44.332,0.10258,0.11632,0.00069
9.594,0.00674,0.00082,-0.00003,0.00067,0.01058,9.78999,37.493,38.454,38.581,44.332,0.00961,0.05280,0.00062
9.604,0.00665,0.00095,-0.00012,0.00128,0.00965,9.73934,37.493,38.454,38.581,44.443,-0.08292,-0.01030,0.00066
9.614,0.00660,0.00100,-0.00021,0.05923,-0.01364,9.80445,37.493,38.454,38.581,44.332,-0.03625,0.09202,0.00055
9.624,0.00647,0.00126,-0.00021,-0.00036,-0.00817,9.81059,37.493,38.454,38.581,44.332,0.03886,0.00782,0.00055
9.634,0.00665,0.00153,-0.00021,-0.06172,-0.00398,9.78376,37.493,38.454,38.581,44.332,0.03409,-0.10492,0.00048
9.644,0.00634,0.00157,-0.00025,-0.02472,0.01963,9.83004,37.493,38.454,38.583,44.332,-0.07503,-0.13369,0.00049
9.654,0.00607,0.00153,-0.00021,-0.00621,0.00436,9.78839,37.493,38.454,38.583,44.443,-0.02385,-0.03307,0.00040
9.664,0.00607,0.00144,-0.00016,-0.02536,-0.00398,9.77266,37.493,38.454,38.583,44.443,0.01872,-0.13745,0.00040
9.674,0.00611,0.00144,-0.00025,0.00404,-0.00101,9.75589,37.493,38.454,38.583,44.443,0.00981,-0.02548,0.00043
9.684,0.00593,0.00148,-0.00030,0.01360,0.03294,9.77626,37.493,38.454,38.583,44.443,-0.08992,0.02621,0.00039
9.694,0.00567,0.00157,-0.00034,0.01471,-0.00306,9.79535,37.478,38.454,38.583,44.332,0.00851,0.08087,0.00035
9.704,0.00571,0.00153,-0.00043,-0.01398,-0.01653,9.76554,37.478,38.454,38.583,44.443,0.06216,-0.01788,0.00030
9.714,0.00562,0.00153,-0.00038,0.01677,0.02873,9.76785,37.478,38.454,38.583,44.443,-0.03807,0.03263,0.00030
9.724,0.00558,0.00144,-0.00034,-0.01046,-0.03174,9.79820,37.478,38.454,38.583,44.443,0.06574,-0.01091,0.00030
9.734,0.00567,0.00130,-0.00030,0.00734,-0.03421,9.79991,37.478,38.454,38.583,44.332,0.17051,0.03106,0.00038
9.744,0.00585,0.00131,-0.00030,0.02338,0.04543,9.80317,37.478,38.434,38.583,44.332,0.06052,0.05769,0.00043
9.754,0.00593,0.00145,-0.00034,-0.00120,-0.03276,9.80468,37.478,38.434,38.583,44.332,0.16219,0.00743,0.00034
9.764,0.00571,0.00140,-0.00021,0.00099,-0.00032,9.74301,37.478,38.434,38.583,44.443,0.04948,0.00631,0.00034
9.774,0.00598,0.00096,-0.00007,0.00008,0.03545,9.76855,37.478,38.434,38.583,44.222,-0.06300,0.00375,0.00033
9.784,0.00620,0.00073,-0.00007,0.01169,0.02644,9.78955,37.478,38.434,38.583,44.443,-0.15511,0.06864,0.00021
9.794,0.00629,0.00064,-0.00007,-0.00318,-0.03267,9.72386,37.478,38.434,38.583,44.443,-0.04667,0.04138,0.00026
9.804,0.00616,0.00055,0.00006,-0.01418,0.02993,9.77495,37.478,38.434,38.583,44.443,-0.12713,-0.03639,0.00037
9.814,0.00607,0.00051,0.00015,-0.00786,-0.00957,9.76111,37.478,38.434,38.583,44.443,-0.01556,-0.04232,0.00038
9.824,0.00607,0.00073,0.00015,0.00621,-0.02512,9.76688,37.478,38.434,38.583,44.443,0.08502,0.00628,0.00041
9.834,0.00589,0.00109,0.00015,0.00433,-0.03736,9.78785,37.478,38.434,38.583,44.443,0.19588,0.02210,0.00045
9.844,0.00576,0.00122,0.00011,-0.02848,-0.01236,9.80325,37.478,38.434,38.582,44.332,0.13420,-0.07194,0.00017
9.854,0.00580,0.00122,0.00006,0.01448,0.05104,9.79104,37.478,38.434,38.582,44.222,0.02826,-0.03360,0.00023
9.864,0.00558,0.00122,0.00011,0.04335,0.02568,9.79693,37.478,38.434,38.582,44.332,-0.03134,0.06227,0.00022
9.874,0.00536,0.00113,0.00011,-0.01930,0.00569,9.77344,37.478,38.434,38.582,44.222,-0.03264,-0.05045,0.00028
9.884,0.00491,0.00104,0.00011,-0.04513,-0.01404,9.81686,37.478,38.434,38.582,44.443,0.02088,-0.14991,0.00029
9.894,0.00500,0.00118,0.00006,0.02255,-0.00609,9.77771,37.470,38.434,38.582,44.443,0.02680,-0.03724,0.00033
9.904,0.00482,0.00149,0.00002,0.00588,-0.06540,9.77393,37.470,38.434,38.582,44.332,0.13728,-0.01503,0.00036
9.914,0.00477,0.00158,-0.00007,-0.01148,-0.00531,9.78439,37.470,38.434,38.582,44.332,0.03613,-0.06479,0.00029
9.924,0.00482,0.00167,-0.00020,0.01796,0.02226,9.77955,37.470,38.434,38.582,44.332,-0.04272,0.01569,0.00028
9.934,0.00513,0.00171,-0.00029,0.04074,0.02139,9.78569,37.470,38.434,38.582,44.332,-0.08188,0.12141,0.00017
9.944,0.00513,0.00182,-0.00043,-0.01215,0.02874,9.75606,37.470,38.384,38.582,44.332,-0.12806,0.01898,0.00036
9.954,0.00526,0.00195,-0.00038,0.01865,0.02537,9.78999,37.470,38.384,38.582,44.443,-0.15293,0.12873,0.00009
9.964,0.00513,0.00204,-0.00029,-0.02939,0.04052,9.77925,37.470,38.384,38.582,44.443,-0.18334,0.02037,0.00041
9.974,0.00509,0.00177,-0.00025,-0.00429,0.00933,9.77751,37.470,38.384,38.582,44.553,-0.07728,-0.01714,0.00049
9.984,0.00500,0.00151,-0.00020,-0.05300,-0.01850,9.77101,37.470,38.384,38.582,44.443,-0.01719,-0.11212,0.00057
9.994,0.00531,0.00128,-0.00016,0.02264,0.03969,9.81164,37.470,38.384,38.582,44.222,-0.09159,-0.02741,0.00049
10.004,0.00544,0.00115,-0.00007,0.02447,0.02770,9.77794,37.470,38.384,38.582,44.443,-0.13471,0.07669,0.00028
10.014,0.00576,0.00111,-0.00003,-0.03551,-0.00249,9.79312,37.470,38.384,38.582,44.443,-0.08227,-0.02324,0.00047
10.024,0.00562,0.00124,-0.00007,-0.02142,-0.01008,9.77191,37.470,38.384,38.582,44.443,0.00898,-0.08933,0.00051
10.034,0.00567,0.00133,-0.00007,0.02822,0.04837,9.74769,37.470,38.384,38.582,44.443,-0.07566,-0.01570,0.00046
10.044,0.00576,0.00115,-0.00003,-0.02715,-0.01476,9.76910,37.470,38.384,38.582,44.111,0.00828,-0.08998,0.00051
10.054,0.00549,0.00097,0.00002,-0.02483,0.01637,9.77296,37.470,38.384,38.582,44.332,-0.09063,-0.14270,0.00054
10.064,0.00527,0.00088,0.00006,-0.05837,0.01821,9.75069,37.470,38.384,38.582,44.443,-0.09974,-0.25407,0.00073
10.074,0.00540,0.00075,0.00011,-0.05374,-0.00607,9.82040,37.470,38.384,38.582,44.332,0.00286,-0.29921,0.00076
10.084,0.00540,0.00066,0.00006,0.01989,-0.00958,9.77771,37.470,38.384,38.582,44.222,0.01711,-0.18797,0.00078
10.094,0.00554,0.00053,0.00011,0.02828,-0.00065,9.77771,37.485,38.384,38.582,44.443,0.01290,-0.07584,0.00081
10.104,0.00580,0.00035,0.00015,-0.01113,0.02886,9.78864,37.485,38.384,38.582,44.664,-0.09932,-0.06924,0.00080
10.114,0.00589,0.00026,0.00020,-0.00653,0.00734,9.76384,37.485,38.384,38.582,44.443,-0.00104,-0.01514,0.00076
10.124,0.00585,0.00022,0.00015,0.00470,0.02753,9.79555,37.485,38.384,38.582,44.332,-0.10976,0.01381,0.00072
10.134,0.00589,0.00022,0.00006,0.03152,0.01402,9.79453,37.485,38.384,38.582,44.332,-0.09168,0.12509,0.00052
10.144,0.00612,0.00024,0.00002,-0.03989,0.01353,9.77934,37.485,38.451,38.582,44.443,-0.08779,0.01248,0.00070
10.154,0.00625,0.00033,0.00002,-0.04206,0.03917,9.76472,37.485,38.451,38.582,44.332,-0.14183,-0.08612,0.00091
10.164,0.00620,0.00037,-0.00012,-0.00969,0.00432,9.78957,37.485,38.451,38.582,44.332,-0.03266,-0.05856,0.00085
10.174,0.00603,0.00037,-0.00012,0.02933,0.02302,9.73778,37.485,38.451,38.582,44.332,-0.07817,0.04376,0.00076
10.184,0.00625,0.00042,-0.00012,0.00973,-0.00466,9.79172,37.485,38.451,38.582,44.443,0.03322,0.05766,0.00075
10.194,0.00634,0.00050,-0.00016,-0.01522,0.01956,9.77500,37.485,38.451,38.582,44.222,-0.04644,-0.02143,0.00076
10.204,0.00625,0.00064,-0.00021,-0.00410,-0.01210,9.79411,37.485,38.451,38.582,44.332,0.06605,-0.02391,0.00075
10.214,0.00607,0.00068,-0.00025,-0.03291,-0.01637,9.76425,37.485,38.451,38.582,44.332,0.08567,-0.13447,0.00061
10.224,0.00625,0.00100,-0.00043,-0.05289,-0.02429,9.76139,37.485,38.451,38.582,44.332,0.12014,-0.24111,0.00042
10.234,0.00634,0.00140,-0.00056,-0.00052,-0.01823,9.78652,37.485,38.451,38.582,44.443,0.11381,-0.12902,0.00065
10.244,0.00629,0.00149,-0.00061,0.01704,0.01103,9.75387,37.485,38.451,38.584,44.332,0.04497,-0.04075,0.00078
10.254,0.00611,0.00149,-0.00061,-0.00670,0.01698,9.77907,37.485,38.451,38.584,44.443,-0.06708,-0.03961,0.00078
10.264,0.00602,0.00153,-0.00043,-0.03696,-0.03064,9.75707,37.485,38.451,38.584,44.332,0.02373,-0.10484,0.00081
10.274,0.00589,0.00148,-0.00039,0.03387,0.02886,9.74541,37.485,38.451,38.584,44.443,-0.03611,-0.01081,0.00080
10.284,0.00598,0.00135,-0.00047,0.00075,0.01090,9.76868,37.485,38.451,38.584,44.332,-0.13390,0.04276,0.00073
10.294,0.00602,0.00135,-0.00061,-0.01356,0.00086,9.80043,37.471,38.451,38.584,44.443,-0.05256,-0.03425,0.00086
10.304,0.00607,0.00131,-0.00088,0.01179,0.02408,9.77107,37.471,38.451,38.584,44.332,-0.12546,0.05077,0.00073
10.314,0.00589,0.00095,-0.00088,-0.02913,-0.02121,9.79887,37.471,38.451,38.584,44.332,-0.04136,-0.02378,0.00085
10.324,0.00580,0.00082,-0.00074,0.02761,0.00603,9.82712,37.471,38.451,38.584,44.443,-0.03757,0.08867,0.00078
10.334,0.00585,0.00082,-0.00047,0.03359,0.00443,9.78775,37.471,38.451,38.584,44.222,-0.02550,0.20067,0.00071
10.344,0.00607,0.00088,-0.00012,0.03646,-0.00251,9.76730,37.471,38.391,38.584,44.332,0.08132,0.23574,0.00073
10.354,0.00571,0.00079,0.00020,-0.00163,0.01776,9.76421,37.471,38.391,38.584,44.332,0.01361,0.14624,0.00066
10.364,0.00558,0.00079,0.00033,0.00790,-0.01237,9.78733,37.471,38.391,38.584,44.332,0.07060,0.04936,0.00059
10.374,0.00549,0.00088,0.00038,0.02313,0.00889,9.78165,37.471,38.391,38.584,44.332,-0.02145,0.11397,0.00060
10.384,0.00544,0.00101,0.00042,-0.01141,-0.01450,9.79288,37.471,38.391,38.584,44.443,0.03565,0.01684,0.00059
10.394,0.00522,0.00101,0.00024,-0.04559,0.01187,9.76244,37.471,38.391,38.584,44.443,-0.00338,-0.08855,0.00056
10.404,0.00504,0.00097,0.00011,-0.05034,-0.02642,9.80524,37.471,38.391,38.584,44.443,0.06529,-0.17806,0.00050
10.414,0.00486,0.00097,0.00033,0.01817,-0.00642,9.80986,37.471,38.391,38.584,44.443,0.05428,-0.06548,0.00062
10.424,0.00477,0.00105,0.00069,0.02256,0.02766,9.77271,37.471,38.391,38.584,44.222,-0.02906,0.01066,0.00063
10.434,0.00455,0.00114,0.00100,0.03068,0.02433,9.78000,37.471,38.391,38.584,44.443,-0.09192,0.10435,0.00052
10.444,0.00473,0.00110,0.00105,-0.03415,0.01212,9.79626,37.471,38.391,38.583,44.443,-0.08411,-0.00840,0.00068
10.454,0.00469,0.00092,0.00078,-0.01162,-0.03061,9.79619,37.471,38.391,38.583,44.443,0.02627,-0.03339,0.00068
10.464,0.00464,0.00074,0.00029,-0.03543,0.00620,9.75045,37.471,38.391,38.583,44.443,-0.01173,-0.13940,0.00067
10.474,0.00455,0.00057,-0.00020,0.00408,0.01333,9.79844,37.471,38.391,38.583,44.332,-0.05417,-0.03480,0.00060
10.484,0.00473,0.00052,-0.00047,0.00943,0.00173,9.75148,37.471,38.391,38.583,44.443,-0.00488,0.06622,0.00056
10.494,0.00456,0.00052,-0.00052,-0.04016,0.04340,9.75948,37.474,38.391,38.583,44.222,-0.07636,-0.02016,0.00061
10.504,0.00451,0.00021,-0.00043,-0.01637,0.00281,9.82132,37.474,38.391,38.583,44.332,-0.00637,-0.10809,0.00069
10.514,0.00469,-0.00001,-0.00043,-0.00531,0.04640,9.73389,37.474,38.391,38.583,44.332,-0.11376,-0.07716,0.00066
10.524,0.00487,0.00003,-0.00056,0.00046,-0.03283,9.77655,37.474,38.391,38.583,44.332,-0.00551,-0.04892,0.00064
10.534,0.00514,0.00017,-0.00061,-0.02316,-0.00462,9.80243,37.474,38.391,38.583,44.332,0.03405,-0.15405,0.00062
10.544,0.00531,0.00020,-0.00079,-0.03131,0.00216,9.79311,37.474,38.425,38.583,44.443,-0.06146,-0.21365,0.00063
10.554,0.00536,0.00038,-0.00097,-0.02853,0.03513,9.77285,37.474,38.425,38.583,44.443,-0.16855,-0.17925,0.00057
10.564,0.00545,0.00065,-0.00106,0.02232,0.04306,9.78750,37.474,38.425,38.583,44.443,-0.19786,-0.07053,0.00023
10.574,0.00540,0.00096,-0.00114,-0.01419,-0.00230,9.77552,37.474,38.425,38.583,44.443,-0.08553,-0.07724,0.00025
10.584,0.00567,0.00109,-0.00101,0.03328,0.00589,9.76603,37.474,38.425,38.583,44.443,-0.06488,0.03316,0.00012
10.594,0.00567,0.00118,-0.00070,0.00608,-0.00678,9.74467,37.474,38.425,38.583,44.222,0.04693,0.03595,0.00013
10.604,0.00585,0.00132,-0.00039,0.02221,-0.00841,9.77330,37.474,38.425,38.583,44.222,0.04977,0.14780,0.00022
10.614,0.00589,0.00141,-0.00034,-0.03429,0.03352,9.77042,37.474,38.425,38.583,44.443,-0.01477,0.05640,0.00020
10.624,0.00598,0.00167,-0.00039,0.02680,0.00156,9.75557,37.474,38.425,38.583,44.222,-0.00858,0.16787,0.00018
10.634,0.00638,0.00203,-0.00043,-0.00765,0.00198,9.77070,37.474,38.425,38.583,44.332,-0.01018,0.05618,0.00020
10.644,0.00625,0.00194,-0.00039,-0.03165,0.04083,9.76557,37.474,38.425,38.582,44.443,-0.08701,-0.02485,0.00027
10.654,0.00620,0.00172,-0.00034,-0.00866,-0.00499,9.75505,37.474,38.425,38.582,44.332,0.02175,-0.04919,0.00029
10.664,0.00625,0.00158,-0.00039,-0.00703,-0.00018,9.81333,37.474,38.425,38.582,44.222,-0.08248,-0.00823,0.00027
10.674,0.00607,0.00145,-0.00047,0.01442,0.02379,9.79078,37.474,38.425,38.582,44.443,-0.14115,0.08749,0.00008
10.684,0.00611,0.00127,-0.00039,0.00808,0.03563,9.79471,37.474,38.425,38.582,44.443,-0.23775,0.02973,0.00028
10.694,0.00607,0.00127,-0.00030,-0.02496,0.02522,9.77935,37.468,38.425,38.582,44.443,-0.18651,-0.07046,0.00065
10.704,0.00585,0.00123,-0.00012,-0.01782,-0.02838,9.79414,37.468,38.425,38.582,44.332,-0.07428,-0.08123,0.00067
10.714,0.00571,0.00096,0.00002,-0.00056,-0.01440,9.78489,37.468,38.425,38.582,44.443,0.02694,-0.03148,0.00064
10.724,0.00580,0.00082,0.00006,-0.02059,-0.01544,9.77274,37.468,38.425,38.582,44.332,0.09228,-0.12322,0.00055
10.734,0.00562,0.00074,-0.00016,-0.03980,-0.01726,9.75297,37.468,38.425,38.582,44.443,0.10148,-0.23506,0.00036
10.744,0.00558,0.00077,-0.00034,-0.00019,-0.00640,9.76555,37.468,38.445,38.582,44.443,0.07193,-0.12695,0.00053
10.754,0.00558,0.00077,-0.00052,0.05408,0.00922,9.77053,37.468,38.445,38.582,44.443,0.04135,-0.01917,0.00063
10.764,0.00522,0.00095,-0.00070,0.03335,-0.01128,9.79668,37.468,38.445,38.582,44.443,0.05418,0.09248,0.00074
10.774,0.00522,0.00113,-0.00083,0.00707,0.00896,9.74178,37.468,38.445,38.582,44.222,-0.04681,0.04438,0.00074
10.784,0.00522,0.00113,-0.00070,0.01436,0.03448,9.77344,37.468,38.445,38.582,44.332,-0.15521,0.07218,0.00070
10.794,0.00518,0.00113,-0.00052,-0.04313,0.03148,9.76476,37.468,38.445,38.582,44.332,-0.16532,-0.03918,0.00101
10.804,0.00540,0.00117,-0.00029,0.04744,0.03992,9.79326,37.468,38.445,38.582,44.443,-0.18893,0.07047,0.00067
10.814,0.00536,0.00131,-0.00038,0.02839,0.00649,9.73183,37.468,38.445,38.582,44.443,-0.09505,0.13068,0.00053
10.824,0.00567,0.00153,-0.00047,0.01588,0.04593,9.74846,37.468,38.445,38.582,44.332,-0.20388,0.10743,0.00058
10.834,0.00593,0.00180,-0.00047,0.00799,0.01486,9.78156,37.468,38.445,38.582,44.332,-0.10486,0.05605,0.00073
10.844,0.00598,0.00184,-0.00039,-0.00983,-0.01375,9.78123,37.468,38.445,38.583,44.332,-0.00957,-0.00236,0.00079
10.854,0.00593,0.00167,-0.00034,0.02439,0.01111,9.75149,37.468,38.445,38.583,44.332,-0.04942,0.10178,0.00073
10.864,0.00611,0.00162,-0.00025,0.00353,-0.00434,9.79410,37.468,38.445,38.583,44.443,0.02645,0.01949,0.00075
10.874,0.00602,0.00158,-0.00016,-0.05335,0.02512,9.73299,37.468,38.445,38.583,44.443,-0.02514,-0.07922,0.00075
10.884,0.00607,0.00158,-0.00007,-0.01046,0.02933,9.81115,37.468,38.445,38.583,44.332,-0.13624,-0.06544,0.00073
10.894,0.00607,0.00171,-0.00003,0.01780,0.04101,9.76417,37.493,38.445,38.583,44.332,-0.19481,0.02983,0.00045
10.904,0.00611,0.00175,-0.00007,0.02758,-0.01060,9.78982,37.493,38.445,38.583,44.443,-0.09502,0.08094,0.00032
10.914,0.00602,0.00158,-0.00034,0.01373,0.01840,9.78639,37.493,38.445,38.583,44.443,-0.20722,0.07585,0.00033
10.924,0.00567,0.00135,-0.00065,-0.01183,-0.00687,9.77998,37.493,38.445,38.583,44.332,-0.11032,0.01899,0.00050
10.934,0.00549,0.00131,-0.00097,-0.02753,-0.01933,9.78158,37.493,38.445,38.583,44.332,-0.02282,-0.05159,0.00059
10.944,0.00563,0.00121,-0.00106,0.00787,0.02674,9.77787,37.493,38.344,38.583,44.443,-0.11363,0.01467,0.00052
10.954,0.00554,0.00117,-0.00101,0.03921,-0.00974,9.77700,37.493,38.344,38.583,44.222,-0.04376,0.10271,0.00041
10.964,0.00558,0.00139,-0.00092,0.03216,-0.02754,9.75655,37.493,38.344,38.583,44.443,0.05960,0.14605,0.00042
10.974,0.00536,0.00175,-0.00083,0.04714,0.03871,9.77638,37.493,38.344,38.583,44.332,-0.04248,0.19245,0.00044
10.984,0.00531,0.00179,-0.00070,-0.02347,0.00140,9.76862,37.493,38.344,38.583,44.222,-0.03092,0.08099,0.00051
10.994,0.00509,0.00175,-0.00052,0.01794,0.02418,9.77874,37.493,38.344,38.583,44.443,-0.14047,0.10485,0.00047
11.004,0.00513,0.00170,-0.00025,0.01393,0.01330,9.75224,37.493,38.344,38.583,44.553,-0.03559,0.06613,0.00054
11.014,0.00482,0.00170,-0.00020,0.02539,0.05642,9.75528,37.493,38.344,38.583,44.332,-0.14302,0.09626,0.00048
