#2025/09/05 10:51:25
time,wx,wy,wz,ax,ay,az,Tx,Ty,Tz,TAcc,pitch,roll,yaw
0.003,-0.02335,-0.04934,0.99214,9.80399,0.12895,-0.19373,42.873,42.283,41.239,49.415,0.96171,-4.22719,-9.56984
0.013,-0.02330,-0.04930,0.99576,9.77365,0.07226,-0.16904,42.873,42.283,41.239,49.747,0.95491,-5.16942,-9.55992
0.023,-0.02335,-0.04957,0.99858,9.84384,0.13316,-0.21851,42.873,42.283,41.239,49.636,0.95184,-6.10447,-9.55000
0.033,-0.02335,-0.05006,0.99804,9.78025,0.13946,-0.18062,42.869,42.283,41.239,49.636,0.94909,-7.02706,-9.54010
0.043,-0.02312,-0.05050,0.99571,9.76726,0.11144,-0.13711,42.869,42.283,41.239,49.747,0.94445,-7.93690,-9.53024
0.053,-0.02294,-0.05059,0.99442,9.78650,0.14663,-0.12474,42.869,42.283,41.239,49.415,0.94194,-8.83606,-9.52042
0.063,-0.02267,-0.05068,0.99428,9.76742,0.14888,-0.18837,42.869,42.283,41.239,49.526,0.93946,-9.72952,-9.51063
0.073,-0.02272,-0.05099,0.99370,9.81599,0.12261,-0.18038,42.869,42.283,41.239,49.526,0.93514,-10.61272,-9.50087
0.083,-0.02281,-0.05113,0.99388,9.77686,0.09076,-0.15706,42.869,42.283,41.395,49.636,0.92874,-11.48490,-9.49115
0.093,-0.02294,-0.05113,0.99522,9.77797,0.15834,-0.15017,42.869,42.283,41.395,49.747,0.92654,-12.34718,-9.48144
0.103,-0.02299,-0.05148,0.99665,9.77314,0.14893,-0.07817,42.869,42.283,41.395,49.747,0.92363,-13.19555,-9.47175
0.113,-0.02294,-0.05184,0.99808,9.81303,0.08368,-0.10218,42.869,42.283,41.395,49.747,0.91643,-14.03621,-9.46208
0.123,-0.02272,-0.05197,0.99840,9.76196,0.11768,-0.08811,42.869,42.283,41.395,49.636,0.91137,-14.86688,-9.45245
0.133,-0.02250,-0.05184,0.99710,9.78443,0.11485,-0.09443,42.869,42.300,41.395,49.636,0.90603,-15.68892,-9.44287
0.143,-0.02250,-0.05188,0.99455,9.77087,0.12042,-0.10176,42.869,42.300,41.395,49.305,0.90099,-16.50252,-9.43335
0.153,-0.02232,-0.05184,0.99249,9.80468,0.14111,-0.11458,42.869,42.300,41.395,49.636,0.89716,-17.30807,-9.42390
0.163,-0.02232,-0.05153,0.99263,9.79402,0.11623,-0.17602,42.869,42.300,41.395,49.415,0.89167,-18.10877,-9.41448
0.173,-0.02254,-0.05135,0.99464,9.75338,0.14692,-0.15223,42.869,42.300,41.395,49.415,0.88808,-18.89931,-9.40510
0.183,-0.02276,-0.05126,0.99634,9.77795,0.10033,-0.16796,42.869,42.300,41.395,49.857,0.88142,-19.68224,-9.39575
0.193,-0.02308,-0.05104,0.99755,9.82178,0.10594,-0.13362,42.869,42.300,41.395,49.415,0.87502,-20.45446,-9.38643
0.203,-0.02299,-0.05077,0.99840,9.82135,0.11890,-0.15902,42.869,42.300,41.395,49.747,0.86939,-21.21990,-9.37716
0.213,-0.02281,-0.05055,0.99808,9.76783,0.10065,-0.15112,42.869,42.300,41.395,49.415,0.86258,-21.97658,-9.36793
0.223,-0.02272,-0.05046,0.99706,9.76818,0.11772,-0.09813,42.869,42.300,41.395,49.747,0.85681,-22.72169,-9.35877
0.233,-0.02272,-0.05019,0.99643,9.80968,0.09305,-0.16014,42.868,42.300,41.395,49.636,0.84939,-23.46259,-9.34967
0.243,-0.02267,-0.05019,0.99755,9.76933,0.12686,-0.12230,42.868,42.300,41.395,49.747,0.84412,-24.19310,-9.34060
0.253,-0.02272,-0.05041,0.99925,9.79316,0.13978,-0.12910,42.868,42.300,41.395,49.636,0.83957,-24.91609,-9.33158
0.263,-0.02285,-0.05081,1.00014,9.82518,0.16035,-0.17370,42.868,42.300,41.395,49.305,0.83623,-25.63402,-9.32261
0.273,-0.02294,-0.05108,0.99952,9.81624,0.13518,-0.09118,42.868,42.300,41.395,49.747,0.83124,-26.33897,-9.31369
0.283,-0.02321,-0.05122,0.99755,9.79062,0.11909,-0.10970,42.868,42.300,41.367,49.636,0.82520,-27.03745,-9.30486
0.293,-0.02321,-0.05148,0.99495,9.78956,0.11673,-0.12538,42.868,42.300,41.367,49.747,0.81898,-27.72934,-9.29610
0.303,-0.02312,-0.05166,0.99214,9.82494,0.12296,-0.10395,42.868,42.300,41.367,49.636,0.81310,-28.41235,-9.28742
0.313,-0.02299,-0.05175,0.99120,9.78073,0.12791,-0.07843,42.868,42.300,41.367,49.747,0.80754,-29.08636,-9.27881
0.323,-0.02272,-0.05175,0.99151,9.80538,0.13137,-0.16157,42.868,42.300,41.367,49.747,0.80214,-29.75829,-9.27026
0.333,-0.02263,-0.05179,0.99147,9.79220,0.12251,-0.12741,42.868,42.354,41.367,49.636,0.79616,-30.42077,-9.26176
0.343,-0.02259,-0.05193,0.99075,9.75332,0.12119,-0.15612,42.868,42.354,41.367,49.526,0.79008,-31.07793,-9.25333
0.353,-0.02281,-0.05220,0.98923,9.76770,0.11026,-0.14795,42.868,42.354,41.367,49.526,0.78328,-31.72742,-9.24498
0.363,-0.02303,-0.05224,0.98753,9.73801,0.11056,-0.06928,42.868,42.354,41.367,49.415,0.77651,-32.36489,-9.23670
0.373,-0.02326,-0.05202,0.98664,9.78303,0.09457,-0.07181,42.868,42.354,41.367,49.747,0.76868,-32.99558,-9.22849
0.383,-0.02339,-0.05171,0.98807,9.76564,0.12897,-0.16977,42.868,42.354,41.367,49.636,0.76303,-33.62564,-9.22033
0.393,-0.02343,-0.05157,0.99169,9.84154,0.07084,-0.13938,42.868,42.354,41.367,49.636,0.75360,-34.24686,-9.21220
0.403,-0.02330,-0.05144,0.99504,9.75791,0.08371,-0.13378,42.868,42.354,41.367,49.747,0.74502,-34.86106,-9.20410
0.413,-0.02317,-0.05130,0.99607,9.80925,0.13673,-0.17887,42.868,42.354,41.367,49.636,0.73978,-35.47139,-9.19606
0.423,-0.02308,-0.05108,0.99563,9.78418,0.11778,-0.13586,42.868,42.354,41.367,49.636,0.73334,-36.07240,-9.18809
0.433,-0.02308,-0.05104,0.99571,9.72385,0.13873,-0.08839,42.868,42.354,41.367,49.526,0.72827,-36.66392,-9.18017
0.443,-0.02308,-0.05104,0.99674,9.73567,0.11092,-0.06608,42.868,42.354,41.367,49.636,0.72138,-37.24759,-9.17231
0.453,-0.02330,-0.05104,0.99840,9.78153,0.11771,-0.14914,42.868,42.354,41.367,49.636,0.71487,-37.83016,-9.16451
0.463,-0.02343,-0.05099,1.00122,9.79506,0.11976,-0.15593,42.868,42.354,41.367,49.415,0.70845,-38.40682,-9.15674
0.473,-0.02348,-0.05108,1.00403,9.78256,0.13417,-0.16329,42.868,42.354,41.367,49.747,0.70294,-38.97771,-9.14902
0.483,-0.02317,-0.05099,1.00497,9.77149,0.10086,-0.10286,42.868,42.354,41.346,49.636,0.69530,-39.53857,-9.14135
0.493,-0.02285,-0.05095,1.00439,9.80761,0.08895,-0.11550,42.868,42.354,41.346,49.636,0.68689,-40.09412,-9.13375
0.503,-0.02272,-0.05095,1.00184,9.80753,0.13647,-0.13586,42.868,42.354,41.346,49.636,0.68154,-40.64493,-9.12624
0.513,-0.02259,-0.05113,0.99764,9.78008,0.10963,-0.14830,42.868,42.354,41.346,49.636,0.67451,-41.19057,-9.11881
0.523,-0.02250,-0.05108,0.99379,9.74985,0.16176,-0.18007,42.868,42.354,41.346,49.747,0.67086,-41.73234,-9.11148
0.533,-0.02263,-0.05086,0.99249,9.75676,0.13069,-0.08177,42.868,42.263,41.346,49.636,0.66521,-42.26198,-9.10423
0.543,-0.02281,-0.05059,0.99285,9.81142,0.11413,-0.17271,42.868,42.263,41.346,49.636,0.65845,-42.79158,-9.09703
0.553,-0.02294,-0.05064,0.99379,9.84129,0.14397,-0.19284,42.868,42.263,41.346,49.747,0.65355,-43.31666,-9.08990
0.563,-0.02285,-0.05050,0.99393,9.79720,0.10326,-0.16065,42.868,42.263,41.346,49.747,0.64610,-43.83406,-9.08282
0.573,-0.02276,-0.05050,0.99312,9.79210,0.14920,-0.17861,42.868,42.263,41.346,49.747,0.64160,-44.34699,-9.07581
0.583,-0.02259,-0.05041,0.99178,9.76090,0.12101,-0.12070,42.868,42.263,41.346,49.747,0.63533,-44.85071,-9.06888
0.593,-0.02250,-0.05041,0.99133,9.77329,0.10630,-0.08760,42.868,42.263,41.346,49.415,0.62812,-45.34684,-9.06201
0.603,-0.02254,-0.05032,0.99218,9.76205,0.13320,-0.15373,42.868,42.263,41.346,49.415,0.62265,-45.84180,-9.05520
0.613,-0.02263,-0.05019,0.99334,9.76552,0.12877,-0.23049,42.868,42.263,41.346,49.636,0.61688,-46.33626,-9.04844
0.623,-0.02272,-0.05010,0.99375,9.78581,0.09804,-0.19204,42.868,42.263,41.346,49.636,0.60915,-46.82288,-9.04174
0.633,-0.02285,-0.05015,0.99375,9.77932,0.10277,-0.13218,42.872,42.263,41.346,49.747,0.60175,-47.30044,-9.03511
0.643,-0.02308,-0.05001,0.99500,9.77553,0.15841,-0.12124,42.872,42.263,41.346,49.747,0.59790,-47.77211,-9.02853
0.653,-0.02317,-0.04988,0.99580,9.77403,0.13219,-0.15246,42.872,42.263,41.346,49.636,0.59238,-48.24065,-9.02201
0.663,-0.02312,-0.04988,0.99728,9.77518,0.12271,-0.12225,42.872,42.263,41.346,49.415,0.58624,-48.70218,-9.01554
0.673,-0.02294,-0.05006,1.00099,9.75909,0.13564,-0.10068,42.872,42.263,41.346,49.526,0.58093,-49.15735,-9.00910
0.683,-0.02285,-0.05001,1.00408,9.75792,0.11329,-0.12630,42.872,42.263,41.344,49.636,0.57418,-49.60921,-9.00271
0.693,-0.02285,-0.04992,1.00470,9.78677,0.12398,-0.12744,42.872,42.263,41.344,49.747,0.56811,-50.05620,-8.99637
0.703,-0.02281,-0.04983,1.00363,9.78218,0.07910,-0.10350,42.872,42.263,41.344,49.636,0.55922,-50.49684,-8.99010
0.713,-0.02294,-0.05001,1.00211,9.82700,0.10920,-0.09582,42.872,42.263,41.344,49.636,0.55227,-50.93217,-8.98390
0.723,-0.02321,-0.05037,0.99961,9.81998,0.13883,-0.16396,42.872,42.263,41.344,49.415,0.54724,-51.36710,-8.97778
0.733,-0.02339,-0.05050,0.99777,9.81501,0.13987,-0.18047,42.872,42.325,41.344,49.636,0.54231,-51.79835,-8.97174
0.743,-0.02326,-0.05077,0.99813,9.80902,0.15744,-0.18300,42.872,42.325,41.344,49.747,0.53850,-52.22509,-8.96575
0.753,-0.02308,-0.05113,0.99893,9.78418,0.12576,-0.15842,42.872,42.325,41.344,49.526,0.53269,-52.64566,-8.95981
0.763,-0.02285,-0.05135,0.99853,9.76694,0.14363,-0.15135,42.872,42.325,41.344,49.526,0.52807,-53.06124,-8.95393
0.773,-0.02254,-0.05144,0.99603,9.74358,0.08244,-0.11977,42.872,42.325,41.344,49.415,0.51959,-53.47033,-8.94813
0.783,-0.02236,-0.05153,0.99375,9.76223,0.13603,-0.11153,42.872,42.325,41.344,49.747,0.51458,-53.87444,-8.94239
0.793,-0.02223,-0.05179,0.99075,9.74835,0.07098,-0.11969,42.872,42.325,41.344,49.636,0.50548,-54.27470,-8.93673
0.803,-0.02241,-0.05197,0.98717,9.77087,0.13412,-0.13962,42.872,42.325,41.344,49.636,0.50047,-54.67186,-8.93115
0.813,-0.02263,-0.05206,0.98592,9.77877,0.11049,-0.11534,42.872,42.325,41.344,49.636,0.49398,-55.06316,-8.92563
0.823,-0.02290,-0.05215,0.98820,9.79672,0.07375,-0.14763,42.872,42.325,41.344,49.636,0.48515,-55.45224,-8.92016
0.833,-0.02308,-0.05224,0.99080,9.75280,0.11824,-0.11791,42.872,42.325,41.344,49.636,0.47923,-55.83525,-8.91473
0.843,-0.02294,-0.05220,0.99178,9.77398,0.14965,-0.09587,42.872,42.325,41.344,49.747,0.47530,-56.21270,-8.90935
0.853,-0.02263,-0.05197,0.99111,9.74804,0.09517,-0.11459,42.872,42.325,41.344,49.636,0.46794,-56.58725,-8.90403
0.863,-0.02232,-0.05175,0.98896,9.77143,0.11581,-0.22195,42.872,42.325,41.344,49.636,0.46194,-56.96453,-8.89877
0.873,-0.02236,-0.05153,0.98722,9.81576,0.11868,-0.20609,42.872,42.325,41.344,49.747,0.45614,-57.33664,-8.89357
0.883,-0.02241,-0.05139,0.98793,9.80799,0.12341,-0.02602,42.872,42.325,41.366,49.747,0.45066,-57.69342,-8.88843
0.893,-0.02250,-0.05126,0.99008,9.79586,0.11967,-0.06988,42.872,42.325,41.366,49.636,0.44497,-58.04904,-8.88333
0.903,-0.02281,-0.05130,0.99245,9.80106,0.11541,-0.09999,42.872,42.325,41.366,49.526,0.43901,-58.40269,-8.87827
0.913,-0.02317,-0.05148,0.99249,9.76970,0.09160,-0.10965,42.872,42.325,41.366,49.636,0.43160,-58.75314,-8.87327
0.923,-0.02326,-0.05139,0.99205,9.83568,0.12390,-0.08903,42.872,42.325,41.366,49.747,0.42624,-59.09845,-8.86832
0.933,-0.02312,-0.05122,0.99097,9.82810,0.14082,-0.17077,42.872,42.319,41.366,49.636,0.42199,-59.44515,-8.86343
0.943,-0.02294,-0.05113,0.99039,9.74803,0.15890,-0.10769,42.872,42.319,41.366,49.747,0.41899,-59.78417,-8.85859
0.953,-0.02272,-0.05126,0.99062,9.77164,0.13451,-0.14043,42.872,42.319,41.366,49.636,0.41442,-60.12157,-8.85380
0.963,-0.02272,-0.05130,0.99084,9.79837,0.09498,-0.23217,42.872,42.319,41.366,49.415,0.40734,-60.46109,-8.84906
0.973,-0.02276,-0.05113,0.99035,9.77505,0.09703,-0.11167,42.872,42.319,41.366,49.747,0.40046,-60.78931,-8.84438
0.983,-0.02285,-0.05077,0.98950,9.73356,0.10998,-0.11272,42.872,42.319,41.366,49.747,0.39448,-61.11407,-8.83975
0.993,-0.02308,-0.05059,0.98919,9.80670,0.11262,-0.14900,42.872,42.319,41.366,49.747,0.38866,-61.43755,-8.83517
1.003,-0.02330,-0.05050,0.98927,9.80591,0.14221,-0.13549,42.872,42.319,41.366,49.305,0.38476,-61.75665,-8.83065
1.013,-0.02348,-0.05019,0.98784,9.76840,0.09291,-0.17399,42.872,42.319,41.366,49.747,0.37778,-62.07476,-8.82618
1.023,-0.02361,-0.04983,0.98713,9.76770,0.14167,-0.05042,42.872,42.319,41.366,49.636,0.37396,-62.38159,-8.82176
1.033,-0.02339,-0.04948,0.98775,9.78447,0.10120,-0.15990,42.869,42.319,41.366,49.636,0.36757,-62.69201,-8.81739
1.043,-0.02303,-0.04925,0.98968,9.79430,0.12430,-0.17244,42.869,42.319,41.366,49.636,0.36266,-62.99983,-8.81306
1.053,-0.02285,-0.04912,0.99071,9.74917,0.13552,-0.22094,42.869,42.319,41.366,49.636,0.35853,-63.30745,-8.80876
1.063,-0.02276,-0.04890,0.99115,9.80535,0.14006,-0.08844,42.869,42.319,41.366,49.415,0.35466,-63.60328,-8.80451
1.073,-0.02272,-0.04867,0.99021,9.74410,0.13184,0.07819,42.869,42.319,41.366,49.747,0.35035,-63.88521,-8.80031
1.083,-0.02281,-0.04850,0.98726,9.78016,0.10873,-0.07270,42.869,42.319,41.349,49.747,0.34459,-64.17378,-8.79617
1.093,-0.02290,-0.04841,0.98579,9.77933,0.11987,-0.18293,42.869,42.319,41.349,49.636,0.33960,-64.46619,-8.79209
1.103,-0.02285,-0.04845,0.98757,9.85761,0.10689,-0.20303,42.869,42.319,41.349,49.636,0.33374,-64.75661,-8.78804
1.113,-0.02281,-0.04881,0.99057,9.76815,0.09691,-0.12376,42.869,42.319,41.349,49.747,0.32733,-65.03896,-8.78402
1.123,-0.02259,-0.04912,0.99223,9.79010,0.16322,-0.10913,42.869,42.319,41.349,49.415,0.32515,-65.31730,-8.78004
1.133,-0.02245,-0.04930,0.99084,9.77847,0.14000,-0.12716,42.869,42.323,41.349,49.636,0.32152,-65.59377,-8.77610
1.143,-0.02245,-0.04943,0.98986,9.76338,0.11140,-0.13391,42.869,42.323,41.349,49.747,0.31612,-65.86769,-8.77221
1.153,-0.02232,-0.04974,0.98923,9.71100,0.12619,-0.12255,42.869,42.323,41.349,49.526,0.31175,-66.13795,-8.76838
1.163,-0.02241,-0.04992,0.98950,9.87603,0.13526,-0.16128,42.869,42.323,41.349,49.747,0.30784,-66.40759,-8.76458
1.173,-0.02263,-0.04979,0.99021,9.83973,0.12266,-0.13042,42.869,42.323,41.349,49.636,0.30318,-66.67239,-8.76082
1.183,-0.02294,-0.04970,0.99048,9.78768,0.10745,-0.02080,42.869,42.323,41.349,49.526,0.29763,-66.92751,-8.75711
1.193,-0.02303,-0.04979,0.98977,9.78440,0.12133,-0.10612,42.869,42.323,41.349,49.747,0.29302,-67.18517,-8.75344
1.203,-0.02303,-0.04979,0.98798,9.81373,0.12671,-0.20694,42.869,42.323,41.349,49.747,0.28877,-67.44640,-8.74982
1.213,-0.02285,-0.04974,0.98731,9.76718,0.14564,-0.12241,42.869,42.323,41.349,49.747,0.28580,-67.69947,-8.74625
1.223,-0.02250,-0.04979,0.98713,9.79441,0.13517,-0.13631,42.869,42.323,41.349,49.636,0.28216,-67.95066,-8.74271
1.233,-0.02250,-0.05010,0.98641,9.83193,0.10019,-0.04992,42.866,42.323,41.349,49.415,0.27630,-68.19367,-8.73921
1.243,-0.02241,-0.05010,0.98771,9.78085,0.16082,-0.10796,42.866,42.323,41.349,49.636,0.27437,-68.43772,-8.73575
1.253,-0.02245,-0.05023,0.99066,9.71147,0.12841,-0.14749,42.866,42.323,41.349,49.636,0.27042,-68.68169,-8.73232
1.263,-0.02245,-0.05028,0.99402,9.75308,0.18290,-0.18217,42.866,42.323,41.349,49.747,0.26990,-68.92518,-8.72892
1.273,-0.02245,-0.05050,0.99478,9.79203,0.11207,-0.14906,42.866,42.323,41.349,49.415,0.26483,-69.16389,-8.72555
1.283,-0.02259,-0.05081,0.99357,9.79459,0.12932,-0.16442,42.866,42.323,41.338,49.526,0.26090,-69.40097,-8.72222
1.293,-0.02245,-0.05130,0.99232,9.77474,0.14168,-0.07089,42.866,42.323,41.338,49.636,0.25781,-69.62959,-8.71894
1.303,-0.02227,-0.05175,0.99182,9.77039,0.14255,-0.14128,42.866,42.323,41.338,49.636,0.25481,-69.86018,-8.71570
1.313,-0.02200,-0.05211,0.99258,9.75148,0.11654,-0.16535,42.866,42.323,41.338,49.636,0.25018,-70.08983,-8.71249
1.323,-0.02182,-0.05237,0.99545,9.84505,0.14295,-0.16548,42.866,42.323,41.338,49.747,0.24716,-70.31690,-8.70930
1.333,-0.02169,-0.05273,0.99911,9.83784,0.11120,-0.10865,42.866,42.333,41.338,49.747,0.24213,-70.53793,-8.70614
1.343,-0.02160,-0.05286,1.00090,9.85085,0.11639,-0.09254,42.866,42.333,41.338,49.636,0.23744,-70.75554,-8.70301
1.353,-0.02178,-0.05282,1.00086,9.78558,0.12019,-0.10732,42.866,42.333,41.338,49.747,0.23308,-70.97176,-8.69992
1.363,-0.02196,-0.05260,0.99902,9.75443,0.14892,-0.13213,42.866,42.333,41.338,49.526,0.23063,-71.18724,-8.69687
1.373,-0.02227,-0.05255,0.99536,9.81972,0.15348,-0.14233,42.866,42.333,41.338,49.857,0.22845,-71.40096,-8.69387
1.383,-0.02250,-0.05220,0.99232,9.74846,0.12405,-0.20400,42.866,42.333,41.338,49.636,0.22451,-71.61634,-8.69092
1.393,-0.02263,-0.05179,0.99156,9.83441,0.14155,-0.20412,42.866,42.333,41.338,49.747,0.22164,-71.82928,-8.68801
1.403,-0.02259,-0.05139,0.99330,9.81024,0.13011,-0.21261,42.866,42.333,41.338,49.747,0.21808,-72.04047,-8.68512
1.413,-0.02241,-0.05090,0.99433,9.78650,0.11666,-0.13343,42.866,42.333,41.338,49.636,0.21370,-72.24438,-8.68227
1.423,-0.02241,-0.05050,0.99285,9.82008,0.18346,-0.12881,42.866,42.333,41.338,49.636,0.21357,-72.44576,-8.67946
1.433,-0.02236,-0.05019,0.99053,9.78777,0.11583,-0.15795,42.868,42.333,41.338,49.415,0.20920,-72.64682,-8.67668
1.443,-0.02241,-0.04988,0.98923,9.73016,0.16068,-0.08928,42.868,42.333,41.338,49.747,0.20779,-72.84138,-8.67395
1.453,-0.02267,-0.04970,0.98834,9.80176,0.08589,-0.09259,42.868,42.333,41.338,49.636,0.20158,-73.03400,-8.67125
1.463,-0.02308,-0.04970,0.98905,9.80103,0.10523,-0.15864,42.868,42.333,41.338,49.636,0.19664,-73.22869,-8.66858
1.473,-0.02335,-0.04983,0.99111,9.77805,0.12945,-0.18178,42.868,42.333,41.338,49.636,0.19328,-73.42277,-8.66595
1.483,-0.02330,-0.04992,0.99187,9.81445,0.10015,-0.11875,42.868,42.333,41.349,49.636,0.18806,-73.61072,-8.66334
1.493,-0.02312,-0.04997,0.99236,9.78470,0.08421,-0.07457,42.868,42.333,41.349,49.415,0.18189,-73.79386,-8.66076
1.503,-0.02285,-0.04997,0.99303,9.76028,0.17054,-0.11292,42.868,42.333,41.349,49.747,0.18128,-73.97745,-8.65821
1.513,-0.02263,-0.05006,0.99196,9.78451,0.15920,-0.14613,42.868,42.333,41.349,49.636,0.17994,-74.16113,-8.65569
1.523,-0.02241,-0.05019,0.99084,9.79897,0.15612,-0.08413,42.868,42.333,41.349,49.526,0.17840,-74.33890,-8.65320
1.533,-0.02227,-0.05032,0.98995,9.73420,0.13139,-0.14097,42.868,42.349,41.349,49.747,0.17537,-74.51838,-8.65074
1.543,-0.02232,-0.05059,0.99093,9.81660,0.10829,-0.10149,42.868,42.349,41.349,49.747,0.17082,-74.69335,-8.64831
1.553,-0.02245,-0.05055,0.99254,9.73475,0.14678,-0.12980,42.868,42.349,41.349,49.747,0.16881,-74.86829,-8.64591
1.563,-0.02272,-0.05055,0.99272,9.79700,0.15392,-0.16132,42.868,42.349,41.349,49.747,0.16721,-75.04326,-8.64353
1.573,-0.02285,-0.05050,0.99191,9.78517,0.15328,-0.19635,42.868,42.349,41.349,49.747,0.16559,-75.21857,-8.64119
1.583,-0.02276,-0.05037,0.99057,9.83022,0.06936,-0.19933,42.868,42.349,41.349,49.747,0.15865,-75.39211,-8.63889
1.593,-0.02254,-0.05006,0.98834,9.77287,0.12039,-0.11863,42.868,42.349,41.349,49.636,0.15507,-75.55870,-8.63661
1.603,-0.02236,-0.04979,0.98588,9.73305,0.06688,-0.14667,42.868,42.349,41.349,49.636,0.14816,-75.72530,-8.63437
1.613,-0.02236,-0.04961,0.98619,9.77124,0.10835,-0.15637,42.868,42.349,41.349,49.636,0.14394,-75.89068,-8.63215
1.623,-0.02236,-0.04961,0.98722,9.79496,0.11907,-0.13180,42.868,42.349,41.349,49.747,0.14041,-76.05268,-8.62996
1.633,-0.02250,-0.04957,0.98664,9.77319,0.11741,-0.09449,42.872,42.349,41.349,49.747,0.13683,-76.21057,-8.62780
1.643,-0.02272,-0.04961,0.98704,9.78081,0.12898,-0.10136,42.872,42.349,41.349,49.636,0.13401,-76.36719,-8.62567
1.653,-0.02299,-0.04970,0.98717,9.85889,0.10559,-0.13748,42.872,42.349,41.349,49.636,0.12967,-76.52431,-8.62357
1.663,-0.02317,-0.04988,0.98686,9.80403,0.09964,-0.11919,42.872,42.349,41.349,49.747,0.12503,-76.67863,-8.62150
1.673,-0.02326,-0.04997,0.98717,9.78780,0.13664,-0.13192,42.872,42.349,41.349,49.747,0.12280,-76.83210,-8.61945
1.683,-0.02321,-0.05006,0.98883,9.79037,0.12211,-0.24160,42.872,42.349,41.347,49.747,0.11964,-76.99085,-8.61742
1.693,-0.02303,-0.05006,0.99178,9.75110,0.14535,-0.15585,42.872,42.349,41.347,49.636,0.11800,-77.14249,-8.61541
1.703,-0.02299,-0.05032,0.99258,9.70909,0.15003,-0.10138,42.872,42.349,41.347,49.636,0.11671,-77.28903,-8.61343
1.713,-0.02290,-0.05064,0.99218,9.78353,0.11273,-0.15192,42.872,42.349,41.347,49.636,0.11298,-77.43716,-8.61147
1.723,-0.02290,-0.05095,0.99173,9.80963,0.10297,-0.17588,42.872,42.349,41.347,49.636,0.10866,-77.58516,-8.60954
1.733,-0.02312,-0.05113,0.99106,9.79551,0.12496,-0.09403,42.872,42.318,41.347,49.747,0.10578,-77.72639,-8.60763
1.743,-0.02317,-0.05139,0.98986,9.83096,0.07122,-0.10405,42.872,42.318,41.347,49.526,0.09952,-77.86671,-8.60575
1.753,-0.02303,-0.05148,0.99062,9.81020,0.10314,-0.12803,42.872,42.318,41.347,49.415,0.09535,-78.00703,-8.60390
1.763,-0.02285,-0.05148,0.99303,9.79520,0.10824,-0.15828,42.872,42.318,41.347,49.747,0.09153,-78.14776,-8.60206
1.773,-0.02267,-0.05166,0.99442,9.76264,0.13107,-0.10466,42.872,42.318,41.347,49.636,0.08921,-78.28359,-8.60024
1.783,-0.02254,-0.05184,0.99343,9.76052,0.13766,-0.07777,42.872,42.318,41.347,49.526,0.08735,-78.41624,-8.59844
1.793,-0.02263,-0.05179,0.99236,9.82135,0.11434,-0.14533,42.872,42.318,41.347,49.747,0.08397,-78.55169,-8.59667
1.803,-0.02254,-0.05153,0.99169,9.79685,0.10210,-0.16467,42.872,42.318,41.347,49.747,0.07988,-78.68690,-8.59492
1.813,-0.02263,-0.05135,0.99147,9.81781,0.12423,-0.15866,42.872,42.318,41.347,49.636,0.07722,-78.82026,-8.59320
1.823,-0.02281,-0.05144,0.99263,9.81405,0.11536,-0.15863,42.872,42.318,41.347,49.415,0.07402,-78.95216,-8.59150
1.833,-0.02303,-0.05139,0.99545,9.77696,0.13388,-0.11748,42.874,42.318,41.347,49.636,0.07202,-79.08007,-8.58982
1.843,-0.02317,-0.05117,0.99782,9.79575,0.09025,-0.14652,42.874,42.318,41.347,49.636,0.06723,-79.20840,-8.58815
1.853,-0.02317,-0.05072,0.99759,9.81216,0.16428,-0.21398,42.874,42.318,41.347,49.636,0.06717,-79.33958,-8.58652
1.863,-0.02299,-0.05059,0.99724,9.76174,0.15215,-0.22660,42.874,42.318,41.347,49.747,0.06639,-79.47022,-8.58490
1.873,-0.02303,-0.05046,0.99724,9.78281,0.08842,-0.18878,42.874,42.318,41.347,49.747,0.06155,-79.59700,-8.58330
1.883,-0.02321,-0.05037,0.99643,9.77269,0.15742,-0.17914,42.874,42.318,41.350,49.636,0.06116,-79.72181,-8.58173
1.893,-0.02326,-0.05023,0.99545,9.78866,0.11643,-0.09482,42.874,42.318,41.350,49.636,0.05816,-79.83990,-8.58018
1.903,-0.02330,-0.05019,0.99527,9.77948,0.11588,-0.11496,42.874,42.318,41.350,49.636,0.05517,-79.95800,-8.57865
1.913,-0.02348,-0.05037,0.99616,9.78569,0.14968,-0.12597,42.874,42.318,41.350,49.636,0.05433,-80.07551,-8.57715
1.923,-0.02352,-0.05046,0.99580,9.78230,0.08243,-0.14211,42.874,42.318,41.350,49.636,0.04924,-80.19276,-8.57566
1.933,-0.02357,-0.05037,0.99402,9.77770,0.10623,-0.12537,42.874,42.327,41.350,49.747,0.04573,-80.30769,-8.57420
1.943,-0.02339,-0.05032,0.99245,9.77165,0.12575,-0.11867,42.874,42.327,41.350,49.526,0.04352,-80.42094,-8.57276
1.953,-0.02317,-0.05023,0.99030,9.71485,0.12701,-0.11973,42.874,42.327,41.350,49.968,0.04148,-80.53308,-8.57134
1.963,-0.02281,-0.05001,0.98945,9.76783,0.13214,-0.14646,42.874,42.327,41.350,49.747,0.03975,-80.64565,-8.56994
1.973,-0.02254,-0.04997,0.99003,9.77713,0.13329,-0.06360,42.874,42.327,41.350,49.857,0.03809,-80.75175,-8.56855
1.983,-0.02241,-0.05019,0.99106,9.75386,0.13963,-0.15340,42.874,42.327,41.350,49.747,0.03687,-80.86242,-8.56718
1.993,-0.02241,-0.05041,0.99066,9.82031,0.10093,-0.13561,42.874,42.327,41.350,49.636,0.03315,-80.97069,-8.56583
2.003,-0.02254,-0.05041,0.98874,9.79994,0.14456,-0.09975,42.874,42.327,41.350,49.747,0.03227,-81.07553,-8.56450
2.013,-0.02267,-0.05032,0.98668,9.76645,0.12705,-0.17177,42.874,42.327,41.350,49.747,0.03033,-81.18383,-8.56320
2.023,-0.02281,-0.05028,0.98547,9.71800,0.12928,-0.14063,42.874,42.327,41.350,49.415,0.02860,-81.28902,-8.56191
2.033,-0.02281,-0.05010,0.98570,9.77097,0.11358,-0.19902,42.871,42.327,41.350,49.747,0.02584,-81.39673,-8.56065
2.043,-0.02263,-0.04983,0.98699,9.82684,0.13221,-0.21536,42.871,42.327,41.350,49.747,0.02424,-81.50423,-8.55939
2.053,-0.02236,-0.04983,0.98905,9.81631,0.17270,-0.11993,42.871,42.327,41.350,49.747,0.02521,-81.60453,-8.55815
2.063,-0.02227,-0.05010,0.99017,9.77393,0.13227,-0.12915,42.871,42.327,41.350,49.636,0.02362,-81.70437,-8.55693
2.073,-0.02227,-0.05032,0.98856,9.76014,0.14221,-0.09106,42.871,42.327,41.350,49.636,0.02272,-81.80073,-8.55572
2.083,-0.02232,-0.05037,0.98668,9.79992,0.13735,-0.07478,42.871,42.327,41.378,49.747,0.02149,-81.89499,-8.55453
2.093,-0.02250,-0.05041,0.98520,9.78004,0.09034,-0.17755,42.871,42.327,41.378,49.415,0.01732,-81.99475,-8.55337
2.103,-0.02276,-0.05050,0.98467,9.77157,0.12011,-0.08406,42.871,42.327,41.378,49.526,0.01510,-82.08752,-8.55222
2.113,-0.02281,-0.05068,0.98677,9.80555,0.11374,-0.15464,42.871,42.327,41.378,49.636,0.01245,-82.18371,-8.55109
2.123,-0.02267,-0.05072,0.99048,9.76629,0.15105,-0.10917,42.871,42.327,41.378,49.636,0.01219,-82.27601,-8.54997
2.133,-0.02236,-0.05095,0.99321,9.80844,0.16253,-0.15087,42.871,42.327,41.378,49.636,0.01260,-82.36991,-8.54885
2.143,-0.02218,-0.05113,0.99393,9.75267,0.13584,-0.13609,42.871,42.327,41.378,49.636,0.01135,-82.46192,-8.54775
2.153,-0.02214,-0.05144,0.99330,9.81839,0.16500,-0.13596,42.871,42.327,41.378,49.747,0.01190,-82.55286,-8.54667
2.163,-0.02205,-0.05153,0.99178,9.80877,0.12539,-0.12614,42.871,42.327,41.378,49.747,0.00996,-82.64221,-8.54560
2.173,-0.02200,-0.05130,0.99053,9.77711,0.17467,-0.08352,42.871,42.327,41.378,49.636,0.01122,-82.72791,-8.54455
2.183,-0.02214,-0.05104,0.99093,9.79845,0.13271,-0.08039,42.871,42.327,41.378,49.747,0.00976,-82.81247,-8.54352
2.193,-0.02232,-0.05086,0.99187,9.82052,0.12913,-0.08148,42.871,42.327,41.378,49.415,0.00807,-82.89618,-8.54250
2.203,-0.02259,-0.05086,0.99312,9.76995,0.12061,-0.15926,42.871,42.327,41.378,49.747,0.00588,-82.98392,-8.54150
2.213,-0.02281,-0.05090,0.99339,9.82832,0.13981,-0.12855,42.871,42.327,41.378,49.747,0.00488,-83.06873,-8.54051
2.223,-0.02272,-0.05104,0.99241,9.79065,0.15169,-0.11591,42.871,42.327,41.378,49.747,0.00469,-83.15183,-8.53954
2.233,-0.02267,-0.05113,0.99030,9.76493,0.16002,-0.17919,42.869,42.327,41.378,49.636,0.00507,-83.23809,-8.53858
2.243,-0.02281,-0.05122,0.98793,9.75311,0.15664,-0.11489,42.869,42.327,41.378,49.747,0.00527,-83.31933,-8.53765
2.253,-0.02290,-0.05122,0.98695,9.76050,0.11988,-0.11386,42.869,42.327,41.378,49.415,0.00313,-83.39960,-8.53672
2.263,-0.02290,-0.05117,0.98847,9.74126,0.12112,-0.13727,42.869,42.327,41.378,49.636,0.00108,-83.48052,-8.53581
2.273,-0.02290,-0.05130,0.98999,9.76600,0.12671,-0.15689,42.869,42.327,41.378,49.747,-0.00062,-83.56179,-8.53492
2.283,-0.02299,-0.05144,0.99017,9.75546,0.21018,-0.17990,42.869,42.327,41.338,49.636,0.00302,-83.64365,-8.53404
2.293,-0.02335,-0.05162,0.98968,9.75934,0.09409,-0.13383,42.869,42.327,41.338,49.636,-0.00077,-83.72169,-8.53317
2.303,-0.02348,-0.05179,0.98883,9.78508,0.10096,-0.12009,42.869,42.327,41.338,49.636,-0.00409,-83.79799,-8.53233
2.313,-0.02343,-0.05193,0.98740,9.75742,0.16272,-0.14667,42.869,42.327,41.338,49.636,-0.00342,-83.87517,-8.53149
2.323,-0.02335,-0.05220,0.98829,9.73206,0.11335,-0.13365,42.869,42.327,41.338,49.747,-0.00588,-83.95071,-8.53067
2.333,-0.02308,-0.05233,0.99102,9.77918,0.12112,-0.15198,42.869,42.330,41.338,49.747,-0.00789,-84.02656,-8.52986
2.343,-0.02276,-0.05242,0.99334,9.77025,0.09718,-0.16597,42.869,42.330,41.338,49.415,-0.01142,-84.10249,-8.52905
2.353,-0.02285,-0.05264,0.99388,9.73997,0.13034,-0.13049,42.869,42.330,41.338,49.415,-0.01278,-84.17535,-8.52826
2.363,-0.02299,-0.05278,0.99352,9.78056,0.10911,-0.07673,42.869,42.330,41.338,49.526,-0.01550,-84.24400,-8.52747
2.373,-0.02308,-0.05269,0.99325,9.76587,0.15488,-0.11161,42.869,42.330,41.338,49.747,-0.01528,-84.31413,-8.52671
2.383,-0.02321,-0.05264,0.99249,9.81617,0.13075,-0.15469,42.869,42.330,41.338,49.636,-0.01662,-84.38616,-8.52596
2.393,-0.02330,-0.05269,0.99173,9.80837,0.14555,-0.17812,42.869,42.330,41.338,49.747,-0.01700,-84.45891,-8.52522
2.403,-0.02326,-0.05264,0.99267,9.79764,0.10696,-0.08991,42.869,42.330,41.338,49.415,-0.01982,-84.52530,-8.52449
2.413,-0.02317,-0.05246,0.99428,9.77124,0.12577,-0.11304,42.869,42.330,41.338,49.636,-0.02142,-84.59245,-8.52377
2.423,-0.02285,-0.05242,0.99375,9.79286,0.08283,-0.17223,42.869,42.330,41.338,49.526,-0.02574,-84.66261,-8.52306
2.433,-0.02272,-0.05264,0.99182,9.78466,0.15254,-0.07091,42.866,42.330,41.338,49.636,-0.02555,-84.72559,-8.52237
2.443,-0.02263,-0.05282,0.99057,9.73238,0.11759,-0.12845,42.866,42.330,41.338,49.636,-0.02754,-84.79158,-8.52169
2.453,-0.02263,-0.05264,0.98927,9.81668,0.08739,-0.15526,42.866,42.330,41.338,49.636,-0.03147,-84.85847,-8.52101
2.463,-0.02276,-0.05251,0.98811,9.76996,0.15703,-0.17111,42.866,42.330,41.338,49.636,-0.03090,-84.92570,-8.52035
2.473,-0.02299,-0.05264,0.98860,9.78910,0.19686,-0.14872,42.866,42.330,41.338,49.636,-0.02782,-84.99075,-8.51971
2.483,-0.02290,-0.05260,0.99026,9.75786,0.13387,-0.16863,42.866,42.330,41.346,49.636,-0.02877,-85.05640,-8.51907
2.493,-0.02267,-0.05251,0.99044,9.81810,0.17739,-0.10105,42.866,42.330,41.346,49.747,-0.02700,-85.11699,-8.51844
2.503,-0.02254,-0.05237,0.98878,9.76726,0.07159,-0.11840,42.866,42.330,41.346,49.636,-0.03192,-85.17807,-8.51782
2.513,-0.02245,-0.05220,0.98699,9.85451,0.11705,-0.13796,42.866,42.330,41.346,49.747,-0.03393,-85.23963,-8.51722
2.523,-0.02241,-0.05193,0.98516,9.84514,0.15353,-0.21660,42.866,42.330,41.346,49.526,-0.03360,-85.30550,-8.51662
2.533,-0.02250,-0.05171,0.98324,9.81076,0.13563,-0.16841,42.866,42.347,41.346,49.747,-0.03435,-85.36765,-8.51604
2.543,-0.02259,-0.05153,0.98337,9.75878,0.14965,-0.15785,42.866,42.347,41.346,49.747,-0.03416,-85.42850,-8.51547
2.553,-0.02272,-0.05139,0.98632,9.76807,0.12967,-0.19671,42.866,42.347,41.346,49.415,-0.03528,-85.49115,-8.51492
2.563,-0.02290,-0.05117,0.98954,9.81417,0.14600,-0.18051,42.866,42.347,41.346,49.636,-0.03543,-85.55204,-8.51437
2.573,-0.02299,-0.05090,0.99071,9.77307,0.12511,-0.08649,42.866,42.347,41.346,49.636,-0.03687,-85.60635,-8.51382
2.583,-0.02299,-0.05086,0.99088,9.75433,0.13349,-0.15537,42.866,42.347,41.346,49.415,-0.03775,-85.66445,-8.51330
2.593,-0.02290,-0.05081,0.99066,9.82319,0.10462,-0.18829,42.866,42.347,41.346,49.415,-0.04051,-85.72394,-8.51278
2.603,-0.02272,-0.05064,0.98977,9.78262,0.08097,-0.12039,42.866,42.347,41.346,49.636,-0.04471,-85.77852,-8.51226
2.613,-0.02272,-0.05059,0.98945,9.80985,0.10113,-0.03836,42.866,42.347,41.346,49.747,-0.04759,-85.82734,-8.51176
2.623,-0.02263,-0.05050,0.99138,9.78669,0.10853,-0.15631,42.866,42.347,41.346,49.636,-0.04997,-85.88307,-8.51126
2.633,-0.02259,-0.05059,0.99397,9.77362,0.09167,-0.21739,42.872,42.347,41.346,49.636,-0.05342,-85.94209,-8.51078
2.643,-0.02267,-0.05081,0.99428,9.81007,0.14917,-0.13350,42.872,42.347,41.346,49.415,-0.05322,-85.99512,-8.51030
2.653,-0.02294,-0.05099,0.99334,9.75479,0.10073,-0.08162,42.872,42.347,41.346,49.857,-0.05604,-86.04432,-8.50984
2.663,-0.02308,-0.05117,0.99308,9.73719,0.14976,-0.16719,42.872,42.347,41.346,49.747,-0.05568,-86.09845,-8.50938
2.673,-0.02308,-0.05144,0.99169,9.80659,0.10434,-0.09950,42.872,42.347,41.346,49.636,-0.05827,-86.14763,-8.50894
2.683,-0.02303,-0.05171,0.99030,9.73523,0.09774,-0.10702,42.872,42.347,41.330,49.526,-0.06118,-86.19682,-8.50850
2.693,-0.02281,-0.05179,0.99097,9.79376,0.10236,-0.07502,42.872,42.347,41.330,49.636,-0.06381,-86.24341,-8.50807
2.703,-0.02276,-0.05188,0.99232,9.74759,0.13887,-0.13050,42.872,42.347,41.330,49.636,-0.06407,-86.29303,-8.50765
2.713,-0.02285,-0.05206,0.99232,9.79228,0.11104,-0.11448,42.872,42.347,41.330,49.636,-0.06614,-86.34107,-8.50724
2.723,-0.02303,-0.05229,0.99106,9.75235,0.10886,-0.16772,42.872,42.347,41.330,49.747,-0.06828,-86.39201,-8.50683
2.733,-0.02321,-0.05229,0.99003,9.80132,0.11825,-0.17037,42.872,42.314,41.330,49.526,-0.06983,-86.44251,-8.50644
2.743,-0.02339,-0.05206,0.98923,9.80031,0.09834,-0.15097,42.872,42.314,41.330,49.747,-0.07261,-86.49123,-8.50606
2.753,-0.02352,-0.05211,0.98887,9.73537,0.15831,-0.12704,42.872,42.314,41.330,49.636,-0.07149,-86.53796,-8.50569
2.763,-0.02352,-0.05206,0.98950,9.75831,0.13915,-0.19961,42.872,42.314,41.330,49.636,-0.07164,-86.58878,-8.50533
2.773,-0.02339,-0.05166,0.99187,9.78734,0.07867,-0.13443,42.872,42.314,41.330,49.636,-0.07567,-86.63487,-8.50497
2.783,-0.02303,-0.05130,0.99232,9.82351,0.10125,-0.16455,42.872,42.314,41.330,49.636,-0.07825,-86.68233,-8.50462
2.793,-0.02276,-0.05113,0.99111,9.79370,0.11313,-0.18243,42.872,42.314,41.330,49.857,-0.08002,-86.73043,-8.50427
2.803,-0.02259,-0.05117,0.99003,9.76742,0.16972,-0.15390,42.872,42.314,41.330,49.747,-0.07814,-86.77624,-8.50393
2.813,-0.02250,-0.05099,0.98936,9.84983,0.07832,-0.11124,42.872,42.314,41.330,49.747,-0.08213,-86.81877,-8.50360
2.823,-0.02263,-0.05095,0.98936,9.80476,0.15124,-0.07081,42.872,42.314,41.330,49.526,-0.08144,-86.85834,-8.50328
2.833,-0.02272,-0.05095,0.99115,9.74726,0.13806,-0.14136,42.873,42.314,41.330,49.636,-0.08155,-86.90197,-8.50296
2.843,-0.02272,-0.05086,0.99370,9.78926,0.16068,-0.17868,42.873,42.314,41.330,49.415,-0.08029,-86.94746,-8.50265
2.853,-0.02259,-0.05072,0.99558,9.77226,0.11532,-0.14314,42.873,42.314,41.330,49.747,-0.08193,-86.99021,-8.50235
2.863,-0.02245,-0.05068,0.99491,9.75486,0.14471,-0.12849,42.873,42.314,41.330,49.747,-0.08165,-87.03159,-8.50205
2.873,-0.02218,-0.05072,0.99357,9.77227,0.06595,-0.09865,42.873,42.314,41.330,49.636,-0.08640,-87.07061,-8.50176
2.883,-0.02218,-0.05086,0.99254,9.78259,0.11703,-0.12380,42.873,42.314,41.340,49.747,-0.08784,-87.11079,-8.50148
2.893,-0.02209,-0.05095,0.99272,9.74221,0.09855,-0.11624,42.873,42.314,41.340,49.747,-0.09041,-87.15010,-8.50120
2.903,-0.02196,-0.05108,0.99352,9.72768,0.16162,-0.14478,42.873,42.314,41.340,49.526,-0.08893,-87.19080,-8.50092
2.913,-0.02223,-0.05126,0.99656,9.80574,0.11124,-0.09914,42.873,42.314,41.340,49.747,-0.09077,-87.22811,-8.50065
2.923,-0.02250,-0.05139,0.99849,9.81285,0.13964,-0.12459,42.873,42.314,41.340,49.636,-0.09081,-87.26662,-8.50040
2.933,-0.02272,-0.05122,0.99880,9.79705,0.13448,-0.11981,42.873,42.289,41.340,49.747,-0.09117,-87.30442,-8.50015
2.943,-0.02281,-0.05108,0.99813,9.81752,0.13138,-0.20213,42.873,42.289,41.340,49.636,-0.09174,-87.34699,-8.49991
2.953,-0.02272,-0.05090,0.99683,9.79537,0.11792,-0.13300,42.873,42.289,41.340,49.636,-0.09312,-87.38475,-8.49967
2.963,-0.02254,-0.05104,0.99464,9.79275,0.10451,-0.11525,42.873,42.289,41.340,49.636,-0.09531,-87.42098,-8.49944
2.973,-0.02236,-0.05117,0.99379,9.74707,0.12611,-0.15537,42.873,42.289,41.340,49.636,-0.09606,-87.45941,-8.49922
2.983,-0.02236,-0.05122,0.99437,9.76653,0.17665,-0.14509,42.873,42.289,41.340,49.526,-0.09361,-87.49674,-8.49900
2.993,-0.02236,-0.05117,0.99616,9.74824,0.15874,-0.15714,42.873,42.289,41.340,49.526,-0.09233,-87.53446,-8.49879
3.003,-0.02254,-0.05135,0.99670,9.86160,0.11779,-0.17251,42.873,42.289,41.340,49.747,-0.09376,-87.57262,-8.49859
3.013,-0.02267,-0.05122,0.99495,9.77707,0.12162,-0.11098,42.873,42.289,41.340,49.747,-0.09485,-87.60655,-8.49839
3.023,-0.02308,-0.05122,0.99187,9.79139,0.12595,-0.12904,42.873,42.289,41.340,49.415,-0.09564,-87.64125,-8.49821
3.033,-0.02330,-0.05148,0.98945,9.83394,0.14837,-0.11047,42.875,42.289,41.340,49.747,-0.09501,-87.67437,-8.49803
3.043,-0.02326,-0.05184,0.98802,9.75453,0.13249,-0.10953,42.875,42.289,41.340,49.415,-0.09531,-87.70714,-8.49786
3.053,-0.02308,-0.05193,0.98945,9.82051,0.14852,-0.13466,42.875,42.289,41.340,49.747,-0.09466,-87.74108,-8.49770
3.063,-0.02285,-0.05202,0.99245,9.80823,0.15889,-0.08933,42.875,42.289,41.340,49.636,-0.09338,-87.77180,-8.49754
3.073,-0.02272,-0.05224,0.99482,9.75924,0.15340,-0.18601,42.875,42.289,41.340,49.747,-0.09243,-87.80836,-8.49738
3.083,-0.02272,-0.05260,0.99486,9.80412,0.11744,-0.19166,42.875,42.289,41.341,49.747,-0.09383,-87.84484,-8.49722
3.093,-0.02290,-0.05260,0.99379,9.75123,0.11787,-0.11067,42.875,42.289,41.341,49.415,-0.09513,-87.87583,-8.49708
3.103,-0.02312,-0.05242,0.99191,9.79759,0.10365,-0.16267,42.875,42.289,41.341,49.636,-0.09733,-87.90974,-8.49694
3.113,-0.02339,-0.05237,0.99048,9.77376,0.11841,-0.14154,42.875,42.289,41.341,49.747,-0.09854,-87.94198,-8.49682
3.123,-0.02339,-0.05255,0.99088,9.73813,0.14203,-0.18564,42.875,42.289,41.341,49.636,-0.09821,-87.97670,-8.49670
3.133,-0.02330,-0.05242,0.99388,9.75628,0.13122,-0.15334,42.875,42.321,41.341,49.636,-0.09862,-88.00897,-8.49658
3.143,-0.02321,-0.05233,0.99719,9.76320,0.14569,-0.09388,42.875,42.321,41.341,49.636,-0.09813,-88.03712,-8.49646
3.153,-0.02290,-0.05211,0.99840,9.80017,0.14963,-0.07685,42.875,42.321,41.341,49.415,-0.09745,-88.06385,-8.49635
3.163,-0.02290,-0.05179,0.99746,9.68568,0.13595,-0.09899,42.875,42.321,41.341,49.636,-0.09754,-88.09176,-8.49624
3.173,-0.02272,-0.05139,0.99585,9.76833,0.11912,-0.13795,42.875,42.321,41.341,49.636,-0.09875,-88.12177,-8.49614
3.183,-0.02276,-0.05113,0.99460,9.85453,0.09954,-0.09324,42.875,42.321,41.341,49.747,-0.10124,-88.14858,-8.49604
3.193,-0.02299,-0.05090,0.99464,9.73983,0.11226,-0.14045,42.875,42.321,41.341,49.636,-0.10282,-88.17817,-8.49595
3.203,-0.02321,-0.05086,0.99571,9.83402,0.11569,-0.12960,42.875,42.321,41.341,49.636,-0.10424,-88.20666,-8.49587
3.213,-0.02339,-0.05077,0.99630,9.79260,0.11451,-0.10806,42.875,42.321,41.341,49.415,-0.10569,-88.23351,-8.49579
3.223,-0.02343,-0.05072,0.99522,9.76886,0.16981,-0.13097,42.875,42.321,41.341,49.636,-0.10359,-88.26154,-8.49572
3.233,-0.02326,-0.05077,0.99375,9.75900,0.14226,-0.18877,42.870,42.321,41.341,49.747,-0.10323,-88.29295,-8.49565
3.243,-0.02294,-0.05077,0.99267,9.75067,0.12378,-0.17665,42.870,42.321,41.341,49.636,-0.10404,-88.32325,-8.49558
3.253,-0.02294,-0.05059,0.99075,9.74187,0.12513,-0.20242,42.870,42.321,41.341,49.636,-0.10473,-88.35488,-8.49552
3.263,-0.02281,-0.05050,0.98914,9.77040,0.08566,-0.16872,42.870,42.321,41.341,49.747,-0.10793,-88.38400,-8.49546
3.273,-0.02272,-0.05041,0.98874,9.82414,0.16511,-0.12307,42.870,42.321,41.341,49.747,-0.10609,-88.40984,-8.49541
3.283,-0.02290,-0.05046,0.98936,9.80324,0.15196,-0.07886,42.870,42.321,41.363,49.636,-0.10510,-88.43265,-8.49537
3.293,-0.02303,-0.05046,0.98896,9.82022,0.07636,-0.13790,42.870,42.321,41.363,49.747,-0.10891,-88.45891,-8.49533
3.303,-0.02321,-0.05046,0.98851,9.77626,0.09890,-0.13017,42.870,42.321,41.363,49.747,-0.11121,-88.48443,-8.49529
3.313,-0.02321,-0.05050,0.98816,9.77640,0.13865,-0.18184,42.870,42.321,41.363,49.636,-0.11097,-88.51296,-8.49527
3.323,-0.02299,-0.05077,0.98731,9.78158,0.14116,-0.13479,42.870,42.321,41.363,49.636,-0.11056,-88.53819,-8.49524
3.333,-0.02276,-0.05077,0.98668,9.77535,0.11193,-0.13265,42.870,42.315,41.363,49.636,-0.11201,-88.56301,-8.49522
3.343,-0.02250,-0.05055,0.98775,9.73890,0.12835,-0.14737,42.870,42.315,41.363,49.636,-0.11237,-88.58854,-8.49519
3.353,-0.02236,-0.05023,0.99057,9.77532,0.08389,-0.13853,42.870,42.315,41.363,49.747,-0.11562,-88.61319,-8.49517
3.363,-0.02245,-0.05010,0.99249,9.74056,0.06409,-0.08672,42.870,42.315,41.363,49.415,-0.12009,-88.63430,-8.49516
3.373,-0.02259,-0.05010,0.99375,9.78073,0.13513,-0.09978,42.870,42.315,41.363,49.636,-0.12003,-88.65598,-8.49515
3.383,-0.02276,-0.05032,0.99469,9.79722,0.12979,-0.14793,42.870,42.315,41.363,49.747,-0.12033,-88.68048,-8.49514
3.393,-0.02303,-0.05050,0.99370,9.78711,0.11459,-0.18126,42.870,42.315,41.363,49.747,-0.12158,-88.70683,-8.49514
3.403,-0.02312,-0.05068,0.99330,9.80885,0.14009,-0.09204,42.870,42.315,41.363,49.415,-0.12121,-88.72723,-8.49515
3.413,-0.02299,-0.05077,0.99451,9.77303,0.12179,-0.16005,42.870,42.315,41.363,49.636,-0.12199,-88.75175,-8.49516
3.423,-0.02272,-0.05090,0.99728,9.80074,0.12980,-0.15716,42.870,42.315,41.363,49.526,-0.12230,-88.77579,-8.49517
3.433,-0.02254,-0.05086,0.99867,9.78800,0.09474,-0.15221,42.867,42.315,41.363,49.526,-0.12483,-88.79926,-8.49518
3.443,-0.02250,-0.05086,0.99804,9.81069,0.16413,-0.13961,42.867,42.315,41.363,49.636,-0.12295,-88.82166,-8.49520
3.453,-0.02259,-0.05086,0.99724,9.81724,0.10544,-0.15455,42.867,42.315,41.363,49.747,-0.12481,-88.84476,-8.49522
3.463,-0.02267,-0.05081,0.99652,9.76916,0.13879,-0.11392,42.867,42.315,41.363,49.747,-0.12448,-88.86507,-8.49525
3.473,-0.02290,-0.05090,0.99585,9.79381,0.09404,-0.15379,42.867,42.315,41.363,49.415,-0.12701,-88.88768,-8.49528
3.483,-0.02308,-0.05117,0.99643,9.73303,0.13024,-0.13575,42.867,42.315,41.319,49.636,-0.12718,-88.90895,-8.49532
3.493,-0.02299,-0.05126,0.99741,9.76655,0.14438,-0.15296,42.867,42.315,41.319,49.747,-0.12647,-88.93105,-8.49536
3.503,-0.02276,-0.05113,0.99630,9.76620,0.13295,-0.12798,42.867,42.315,41.319,49.415,-0.12650,-88.95133,-8.49540
3.513,-0.02254,-0.05086,0.99469,9.81569,0.14633,-0.08320,42.867,42.315,41.319,49.636,-0.12570,-88.96851,-8.49544
3.523,-0.02241,-0.05059,0.99366,9.78648,0.08482,-0.13125,42.867,42.315,41.319,49.747,-0.12878,-88.98857,-8.49549
3.533,-0.02241,-0.05041,0.99276,9.80940,0.08041,-0.15003,42.867,42.348,41.319,49.747,-0.13210,-89.00957,-8.49554
3.543,-0.02241,-0.05037,0.99236,9.82922,0.11242,-0.17423,42.867,42.348,41.319,49.747,-0.13338,-89.03186,-8.49559
3.553,-0.02259,-0.05023,0.99312,9.84285,0.07796,-0.19490,42.867,42.348,41.319,49.747,-0.13683,-89.05519,-8.49565
3.563,-0.02285,-0.05023,0.99504,9.76696,0.10870,-0.15157,42.867,42.348,41.319,49.636,-0.13827,-89.07561,-8.49571
3.573,-0.02308,-0.05046,0.99701,9.82751,0.12310,-0.07257,42.867,42.348,41.319,49.747,-0.13885,-89.09077,-8.49578
3.583,-0.02317,-0.05046,0.99670,9.79981,0.12611,-0.10930,42.867,42.348,41.319,49.747,-0.13920,-89.10810,-8.49586
3.593,-0.02317,-0.05032,0.99509,9.79787,0.11963,-0.08877,42.867,42.348,41.319,49.526,-0.13995,-89.12395,-8.49593
3.603,-0.02299,-0.05023,0.99357,9.78508,0.14043,-0.13839,42.867,42.348,41.319,49.747,-0.13934,-89.14278,-8.49601
3.613,-0.02285,-0.05037,0.99290,9.75572,0.11241,-0.15204,42.867,42.348,41.319,49.747,-0.14049,-89.16228,-8.49609
3.623,-0.02281,-0.05046,0.99460,9.77400,0.10453,-0.15956,42.867,42.348,41.319,49.636,-0.14215,-89.18204,-8.49617
3.633,-0.02294,-0.05046,0.99831,9.82029,0.14688,-0.16762,42.870,42.348,41.319,49.747,-0.14119,-89.20205,-8.49626
3.643,-0.02303,-0.05037,1.00095,9.80359,0.11793,-0.15950,42.870,42.348,41.319,49.747,-0.14208,-89.22134,-8.49635
3.653,-0.02321,-0.05046,1.00122,9.76793,0.15366,-0.13934,42.870,42.348,41.319,49.747,-0.14067,-89.23919,-8.49645
3.663,-0.02335,-0.05059,0.99987,9.77080,0.09584,-0.10766,42.870,42.348,41.319,49.636,-0.14293,-89.25482,-8.49655
3.673,-0.02339,-0.05046,0.99773,9.77571,0.07590,-0.11879,42.870,42.348,41.319,49.636,-0.14643,-89.27099,-8.49665
3.683,-0.02330,-0.05032,0.99536,9.78709,0.12518,-0.11257,42.870,42.348,41.347,49.636,-0.14673,-89.28658,-8.49675
3.693,-0.02308,-0.05023,0.99486,9.79062,0.11727,-0.19614,42.870,42.348,41.347,49.636,-0.14754,-89.30728,-8.49686
3.703,-0.02281,-0.04988,0.99589,9.80573,0.12798,-0.14346,42.870,42.348,41.347,49.636,-0.14768,-89.32442,-8.49697
3.713,-0.02272,-0.04957,0.99697,9.79666,0.12688,-0.09645,42.870,42.348,41.347,49.747,-0.14789,-89.33839,-8.49708
3.723,-0.02259,-0.04943,0.99719,9.77057,0.12233,-0.22038,42.870,42.348,41.347,49.415,-0.14836,-89.36009,-8.49719
3.733,-0.02272,-0.04934,0.99674,9.79991,0.15227,-0.20674,42.870,42.334,41.347,49.305,-0.14696,-89.38065,-8.49730
3.743,-0.02276,-0.04921,0.99478,9.78157,0.13433,-0.11384,42.870,42.334,41.347,49.526,-0.14667,-89.39512,-8.49743
3.753,-0.02294,-0.04908,0.99223,9.81074,0.14318,-0.09165,42.870,42.334,41.347,49.526,-0.14582,-89.40802,-8.49755
3.763,-0.02303,-0.04912,0.99035,9.77820,0.15695,-0.10915,42.870,42.334,41.347,49.636,-0.14405,-89.42190,-8.49768
3.773,-0.02303,-0.04930,0.99039,9.79834,0.13250,-0.14512,42.870,42.334,41.347,49.747,-0.14388,-89.43788,-8.49781
3.783,-0.02285,-0.04948,0.99276,9.80714,0.10566,-0.05005,42.870,42.334,41.347,49.636,-0.14544,-89.44771,-8.49794
3.793,-0.02259,-0.04939,0.99424,9.76324,0.17677,-0.09847,42.870,42.334,41.347,49.747,-0.14245,-89.46049,-8.49807
3.803,-0.02241,-0.04934,0.99410,9.72801,0.11809,-0.19360,42.870,42.334,41.347,49.636,-0.14319,-89.47922,-8.49820
3.813,-0.02227,-0.04948,0.99428,9.83495,0.13345,-0.21734,42.870,42.334,41.347,49.747,-0.14304,-89.49911,-8.49833
3.823,-0.02236,-0.04970,0.99415,9.75293,0.12689,-0.17263,42.870,42.334,41.347,49.857,-0.14323,-89.51606,-8.49847
3.833,-0.02250,-0.04979,0.99317,9.82151,0.07885,-0.08443,42.870,42.334,41.347,49.636,-0.14651,-89.52718,-8.49861
3.843,-0.02263,-0.04979,0.99464,9.77022,0.14420,-0.10510,42.877,42.334,41.347,49.636,-0.14559,-89.53953,-8.49875
3.853,-0.02281,-0.04974,0.99665,9.81110,0.12389,-0.12371,42.877,42.334,41.347,49.636,-0.14602,-89.55288,-8.49890
3.863,-0.02281,-0.04997,0.99719,9.76659,0.11135,-0.16123,42.877,42.334,41.347,49.636,-0.14721,-89.56850,-8.49905
3.873,-0.02276,-0.05006,0.99719,9.84173,0.11815,-0.22527,42.877,42.334,41.347,49.415,-0.14802,-89.58792,-8.49920
3.883,-0.02263,-0.05010,0.99630,9.80089,0.07729,-0.13758,42.877,42.334,41.308,49.636,-0.15136,-89.60164,-8.49936
3.893,-0.02250,-0.05006,0.99460,9.77561,0.11698,-0.11579,42.877,42.334,41.308,49.747,-0.15212,-89.61385,-8.49951
3.903,-0.02227,-0.04997,0.99388,9.80959,0.13753,-0.17043,42.877,42.334,41.308,49.636,-0.15159,-89.62935,-8.49967
3.913,-0.02218,-0.04988,0.99469,9.78057,0.16301,-0.13973,42.877,42.334,41.308,49.526,-0.14942,-89.64277,-8.49983
3.923,-0.02232,-0.04997,0.99701,9.82723,0.13327,-0.12771,42.877,42.334,41.308,49.857,-0.14923,-89.65524,-8.49999
3.933,-0.02263,-0.05010,0.99853,9.76689,0.14937,-0.15500,42.877,42.334,41.308,49.636,-0.14798,-89.66936,-8.50015
3.943,-0.02299,-0.05032,0.99782,9.80774,0.13745,-0.18934,42.877,42.345,41.308,49.636,-0.14754,-89.68546,-8.50033
3.953,-0.02299,-0.05055,0.99594,9.78562,0.14259,-0.18182,42.877,42.345,41.308,49.636,-0.14673,-89.70095,-8.50050
3.963,-0.02290,-0.05068,0.99531,9.79621,0.12016,-0.15512,42.877,42.345,41.308,49.636,-0.14736,-89.71456,-8.50068
3.973,-0.02267,-0.05072,0.99478,9.79352,0.08331,-0.14690,42.877,42.345,41.308,49.636,-0.15031,-89.72751,-8.50085
3.983,-0.02254,-0.05095,0.99554,9.81348,0.12311,-0.13536,42.877,42.345,41.308,49.636,-0.15073,-89.73957,-8.50103
3.993,-0.02250,-0.05104,0.99826,9.76333,0.06331,-0.17064,42.877,42.345,41.308,49.747,-0.15494,-89.75378,-8.50121
4.003,-0.02245,-0.05104,1.00090,9.83413,0.14329,-0.14140,42.877,42.345,41.308,49.636,-0.15410,-89.76592,-8.50139
4.013,-0.02263,-0.05113,1.00215,9.76886,0.13834,-0.13282,42.877,42.345,41.308,49.636,-0.15354,-89.77745,-8.50158
4.023,-0.02281,-0.05130,1.00256,9.77393,0.11333,-0.16764,42.877,42.345,41.308,49.636,-0.15458,-89.79105,-8.50177
4.033,-0.02312,-0.05153,1.00139,9.78905,0.13469,-0.14719,42.877,42.345,41.308,49.747,-0.15425,-89.80321,-8.50196
4.043,-0.02326,-0.05139,0.99943,9.75098,0.12727,-0.16862,42.876,42.345,41.308,49.747,-0.15435,-89.81662,-8.50216
4.053,-0.02321,-0.05126,0.99849,9.75378,0.13094,-0.11073,42.876,42.345,41.308,49.636,-0.15421,-89.82620,-8.50236
4.063,-0.02290,-0.05126,0.99925,9.74839,0.10547,-0.13595,42.876,42.345,41.308,49.636,-0.15569,-89.83729,-8.50256
4.073,-0.02259,-0.05113,1.00068,9.79195,0.12954,-0.08724,42.876,42.345,41.308,49.747,-0.15568,-89.84514,-8.50275
4.083,-0.02245,-0.05086,1.00005,9.77996,0.10790,-0.20820,42.876,42.345,41.319,49.636,-0.15702,-89.86057,-8.50295
4.093,-0.02254,-0.05077,0.99853,9.74560,0.06269,-0.17997,42.876,42.345,41.319,49.415,-0.16120,-89.87408,-8.50315
4.103,-0.02281,-0.05077,0.99692,9.76502,0.11439,-0.16447,42.876,42.345,41.319,49.415,-0.16203,-89.88644,-8.50336
4.113,-0.02308,-0.05081,0.99585,9.81600,0.08655,-0.17295,42.876,42.345,41.319,49.636,-0.16464,-89.89914,-8.50357
4.123,-0.02321,-0.05059,0.99509,9.80021,0.11173,-0.16551,42.876,42.345,41.319,49.636,-0.16561,-89.91125,-8.50378
4.133,-0.02330,-0.05041,0.99513,9.77844,0.16246,-0.18316,42.876,42.345,41.319,49.636,-0.16333,-89.92438,-8.50400
4.143,-0.02303,-0.05028,0.99594,9.74080,0.12764,-0.13691,42.876,42.299,41.319,49.747,-0.16326,-89.93446,-8.50422
4.153,-0.02267,-0.05037,0.99630,9.77790,0.13527,-0.16292,42.876,42.299,41.319,49.636,-0.16274,-89.94605,-8.50443
4.163,-0.02250,-0.05032,0.99625,9.75402,0.12506,-0.15010,42.876,42.299,41.319,49.636,-0.16286,-89.95673,-8.50465
4.173,-0.02241,-0.05046,0.99634,9.80046,0.12021,-0.15550,42.876,42.299,41.319,49.747,-0.16332,-89.96758,-8.50487
4.183,-0.02241,-0.05064,0.99683,9.77446,0.09384,-0.14623,42.876,42.299,41.319,49.636,-0.16544,-89.97776,-8.50509
4.193,-0.02259,-0.05095,0.99773,9.71999,0.15389,-0.13271,42.876,42.299,41.319,49.636,-0.16368,-89.98701,-8.50531
4.203,-0.02276,-0.05104,0.99871,9.79054,0.17384,-0.15141,42.876,42.299,41.319,49.636,-0.16074,-89.99730,-8.50554
4.213,-0.02303,-0.05099,1.00090,9.76934,0.07682,-0.16747,42.876,42.299,41.319,49.747,-0.16401,-90.00851,-8.50577
4.223,-0.02308,-0.05104,1.00108,9.75030,0.11958,-0.16899,42.876,42.299,41.319,49.747,-0.16451,-90.01972,-8.50600
4.233,-0.02294,-0.05139,0.99996,9.75963,0.15075,-0.17755,42.876,42.299,41.319,49.636,-0.16301,-90.03134,-8.50623
4.243,-0.02272,-0.05139,0.99808,9.80738,0.13545,-0.09725,42.874,42.299,41.319,49.415,-0.16253,-90.03770,-8.50646
4.253,-0.02254,-0.05144,0.99652,9.80680,0.12578,-0.11570,42.874,42.299,41.319,49.747,-0.16265,-90.04517,-8.50669
4.263,-0.02245,-0.05153,0.99540,9.78636,0.14179,-0.07848,42.874,42.299,41.319,49.636,-0.16172,-90.05020,-8.50692
4.273,-0.02254,-0.05171,0.99540,9.74454,0.16237,-0.20743,42.874,42.299,41.319,49.747,-0.15945,-90.06342,-8.50716
4.283,-0.02290,-0.05162,0.99715,9.79768,0.10700,-0.19244,42.874,42.299,41.319,49.747,-0.16080,-90.07546,-8.50740
4.293,-0.02308,-0.05162,0.99835,9.77636,0.10407,-0.07511,42.874,42.299,41.335,49.747,-0.16231,-90.07997,-8.50764
4.303,-0.02330,-0.05166,0.99674,9.78808,0.14281,-0.12311,42.874,42.299,41.335,49.636,-0.16134,-90.08746,-8.50789
4.313,-0.02335,-0.05166,0.99366,9.79898,0.12090,-0.17280,42.874,42.299,41.335,49.636,-0.16174,-90.09799,-8.50814
4.323,-0.02339,-0.05135,0.99057,9.82555,0.15047,-0.14309,42.874,42.299,41.335,49.636,-0.16027,-90.10651,-8.50839
4.333,-0.02339,-0.05130,0.98905,9.74819,0.10487,-0.08448,42.874,42.299,41.335,49.636,-0.16162,-90.11129,-8.50864
4.343,-0.02326,-0.05153,0.98851,9.83448,0.10004,-0.10418,42.874,42.334,41.335,49.747,-0.16332,-90.11720,-8.50889
4.353,-0.02317,-0.05175,0.98883,9.80738,0.08237,-0.13276,42.874,42.334,41.335,49.415,-0.16611,-90.12488,-8.50914
4.363,-0.02303,-0.05162,0.98816,9.80106,0.10635,-0.16829,42.874,42.334,41.335,49.747,-0.16733,-90.13472,-8.50939
4.373,-0.02308,-0.05162,0.98641,9.82953,0.09469,-0.19866,42.874,42.334,41.335,49.747,-0.16928,-90.14635,-8.50965
4.383,-0.02326,-0.05166,0.98453,9.76370,0.09899,-0.17445,42.874,42.334,41.335,49.968,-0.17088,-90.15639,-8.50991
4.393,-0.02339,-0.05162,0.98319,9.77221,0.08273,-0.13211,42.874,42.334,41.335,49.636,-0.17349,-90.16364,-8.51017
4.403,-0.02335,-0.05157,0.98306,9.79913,0.12413,-0.12618,42.874,42.334,41.335,49.415,-0.17345,-90.17039,-8.51043
4.413,-0.02308,-0.05144,0.98409,9.74301,0.12774,-0.11317,42.874,42.334,41.335,49.636,-0.17315,-90.17630,-8.51069
4.423,-0.02276,-0.05135,0.98722,9.78524,0.13574,-0.16289,42.874,42.334,41.335,49.636,-0.17242,-90.18526,-8.51095
4.433,-0.02241,-0.05135,0.99106,9.78038,0.15791,-0.17268,42.874,42.334,41.335,49.747,-0.17031,-90.19475,-8.51120
4.443,-0.02232,-0.05135,0.99308,9.74703,0.08135,-0.11130,42.870,42.334,41.335,49.968,-0.17310,-90.20027,-8.51146
4.453,-0.02209,-0.05148,0.99402,9.78769,0.08357,-0.04681,42.870,42.334,41.335,49.747,-0.17574,-90.20164,-8.51172
4.463,-0.02191,-0.05166,0.99366,9.76951,0.10658,-0.10692,42.870,42.334,41.335,49.747,-0.17688,-90.20679,-8.51197
4.473,-0.02196,-0.05197,0.99339,9.80173,0.08371,-0.17219,42.870,42.334,41.335,49.526,-0.17948,-90.21600,-8.51223
4.483,-0.02205,-0.05206,0.99518,9.83023,0.12775,-0.18195,42.870,42.334,41.335,49.415,-0.17929,-90.22569,-8.51248
4.493,-0.02223,-0.05215,0.99844,9.77805,0.09797,-0.18604,42.870,42.334,41.339,49.636,-0.18099,-90.23560,-8.51274
4.503,-0.02214,-0.05229,1.00215,9.80236,0.11721,-0.13980,42.870,42.334,41.339,49.636,-0.18151,-90.24245,-8.51301
4.513,-0.02187,-0.05269,1.00368,9.75692,0.10631,-0.14436,42.870,42.334,41.339,49.415,-0.18269,-90.24956,-8.51327
4.523,-0.02169,-0.05286,1.00327,9.73634,0.12927,-0.09271,42.870,42.334,41.339,49.747,-0.18238,-90.25332,-8.51353
4.533,-0.02169,-0.05282,1.00144,9.77404,0.13370,-0.15931,42.870,42.334,41.339,49.415,-0.18180,-90.26125,-8.51379
4.543,-0.02174,-0.05278,0.99947,9.83784,0.13782,-0.18277,42.870,42.296,41.339,49.636,-0.18100,-90.27050,-8.51405
4.553,-0.02178,-0.05282,0.99773,9.81353,0.15150,-0.13712,42.870,42.296,41.339,49.747,-0.17931,-90.27679,-8.51431
4.563,-0.02196,-0.05282,0.99715,9.77329,0.13779,-0.08294,42.870,42.296,41.339,49.747,-0.17846,-90.27962,-8.51458
4.573,-0.02205,-0.05291,0.99661,9.77636,0.12689,-0.13876,42.870,42.296,41.339,49.857,-0.17831,-90.28595,-8.51485
4.583,-0.02241,-0.05291,0.99486,9.76496,0.12927,-0.19109,42.870,42.296,41.339,49.747,-0.17799,-90.29555,-8.51512
4.593,-0.02263,-0.05278,0.99308,9.80198,0.13697,-0.19780,42.870,42.296,41.339,49.747,-0.17719,-90.30542,-8.51540
4.603,-0.02267,-0.05251,0.99187,9.80490,0.14200,-0.07880,42.870,42.296,41.339,49.305,-0.17607,-90.30766,-8.51568
4.613,-0.02263,-0.05229,0.99048,9.79566,0.13321,-0.15358,42.870,42.296,41.339,49.636,-0.17550,-90.31460,-8.51596
4.623,-0.02254,-0.05215,0.99012,9.76638,0.11950,-0.13394,42.870,42.296,41.339,49.636,-0.17578,-90.32025,-8.51624
4.633,-0.02259,-0.05211,0.99156,9.78240,0.09642,-0.20491,42.870,42.296,41.339,49.747,-0.17756,-90.33032,-8.51652
4.643,-0.02276,-0.05157,0.99348,9.81993,0.10928,-0.16219,42.869,42.296,41.339,49.636,-0.17854,-90.33754,-8.51681
4.653,-0.02294,-0.05130,0.99428,9.76473,0.12755,-0.13198,42.869,42.296,41.339,49.747,-0.17831,-90.34280,-8.51709
4.663,-0.02317,-0.05126,0.99379,9.75716,0.14019,-0.11237,42.869,42.296,41.339,49.636,-0.17727,-90.34678,-8.51739
4.673,-0.02335,-0.05144,0.99232,9.79957,0.12561,-0.14267,42.869,42.296,41.339,49.636,-0.17719,-90.35259,-8.51768
4.683,-0.02357,-0.05144,0.99088,9.75995,0.10030,-0.11376,42.869,42.296,41.339,49.526,-0.17868,-90.35654,-8.51798
4.693,-0.02361,-0.05135,0.99120,9.72373,0.12217,-0.10438,42.869,42.296,41.347,49.636,-0.17873,-90.35989,-8.51827
4.703,-0.02352,-0.05108,0.99321,9.78779,0.14083,-0.14079,42.869,42.296,41.347,49.636,-0.17767,-90.36545,-8.51857
4.713,-0.02321,-0.05108,0.99630,9.82110,0.13887,-0.15430,42.869,42.296,41.347,49.636,-0.17681,-90.37178,-8.51887
4.723,-0.02303,-0.05104,0.99755,9.78019,0.10840,-0.17282,42.869,42.296,41.347,49.747,-0.17786,-90.37926,-8.51916
4.733,-0.02290,-0.05077,0.99656,9.76761,0.14029,-0.11715,42.869,42.296,41.347,49.636,-0.17686,-90.38312,-8.51946
4.743,-0.02299,-0.05068,0.99571,9.77894,0.10504,-0.14144,42.869,42.331,41.347,49.747,-0.17811,-90.38847,-8.51976
4.753,-0.02317,-0.05077,0.99518,9.84133,0.10751,-0.19265,42.869,42.331,41.347,49.636,-0.17923,-90.39694,-8.52005
4.763,-0.02339,-0.05081,0.99451,9.76077,0.11701,-0.17054,42.869,42.331,41.347,49.636,-0.17967,-90.40401,-8.52036
4.773,-0.02335,-0.05113,0.99522,9.77577,0.11191,-0.14149,42.869,42.331,41.347,49.857,-0.18044,-90.40916,-8.52066
4.783,-0.02312,-0.05126,0.99741,9.79651,0.11376,-0.11649,42.869,42.331,41.347,49.636,-0.18113,-90.41264,-8.52096
4.793,-0.02294,-0.05144,0.99876,9.77647,0.13623,-0.09980,42.869,42.331,41.347,49.747,-0.18038,-90.41505,-8.52127
4.803,-0.02285,-0.05153,0.99813,9.76300,0.08980,-0.16516,42.869,42.331,41.347,49.747,-0.18257,-90.42159,-8.52157
4.813,-0.02272,-0.05153,0.99665,9.76903,0.09760,-0.15150,42.869,42.331,41.347,49.747,-0.18424,-90.42718,-8.52187
4.823,-0.02263,-0.05157,0.99410,9.78688,0.09279,-0.15823,42.869,42.331,41.347,49.747,-0.18618,-90.43312,-8.52217
4.833,-0.02267,-0.05179,0.99223,9.76887,0.13186,-0.11751,42.869,42.331,41.347,49.636,-0.18558,-90.43644,-8.52247
4.843,-0.02281,-0.05175,0.99308,9.75990,0.11441,-0.14198,42.876,42.331,41.347,49.636,-0.18610,-90.44128,-8.52277
4.853,-0.02303,-0.05184,0.99688,9.72425,0.11751,-0.12446,42.876,42.331,41.347,49.636,-0.18642,-90.44499,-8.52308
4.863,-0.02321,-0.05197,1.00041,9.80124,0.14751,-0.14278,42.876,42.331,41.347,49.747,-0.18494,-90.44975,-8.52339
4.873,-0.02303,-0.05211,1.00081,9.81187,0.05903,-0.12538,42.876,42.331,41.347,49.415,-0.18909,-90.45335,-8.52370
4.883,-0.02276,-0.05211,0.99867,9.81104,0.11679,-0.18117,42.876,42.331,41.347,49.636,-0.18951,-90.46044,-8.52401
4.893,-0.02250,-0.05188,0.99563,9.78122,0.12525,-0.18818,42.876,42.331,41.371,49.415,-0.18934,-90.46793,-8.52431
4.903,-0.02245,-0.05148,0.99339,9.80069,0.13098,-0.14913,42.876,42.331,41.371,49.526,-0.18880,-90.47284,-8.52462
4.913,-0.02263,-0.05135,0.99223,9.79029,0.12855,-0.14916,42.876,42.331,41.371,49.747,-0.18840,-90.47771,-8.52492
4.923,-0.02285,-0.05113,0.99339,9.81198,0.11849,-0.13494,42.876,42.331,41.371,49.526,-0.18867,-90.48161,-8.52524
4.933,-0.02308,-0.05064,0.99571,9.77026,0.09185,-0.15347,42.876,42.331,41.371,49.636,-0.19063,-90.48666,-8.52555
4.943,-0.02335,-0.05032,0.99683,9.80161,0.10692,-0.11522,42.876,42.273,41.371,49.747,-0.19164,-90.48922,-8.52587
4.953,-0.02339,-0.05023,0.99670,9.77555,0.09056,-0.21215,42.876,42.273,41.371,49.747,-0.19365,-90.49791,-8.52619
4.963,-0.02348,-0.05015,0.99589,9.73791,0.10691,-0.12636,42.876,42.273,41.371,49.415,-0.19458,-90.50109,-8.52651
4.973,-0.02343,-0.05010,0.99339,9.77326,0.13827,-0.16939,42.876,42.273,41.371,49.747,-0.19349,-90.50694,-8.52683
4.983,-0.02335,-0.04983,0.99088,9.77559,0.13182,-0.15366,42.876,42.273,41.371,49.747,-0.19281,-90.51172,-8.52715
4.993,-0.02303,-0.04966,0.99017,9.77667,0.09851,-0.13499,42.876,42.273,41.371,49.747,-0.19425,-90.51527,-8.52747
5.003,-0.02285,-0.04961,0.99093,9.79632,0.11695,-0.08072,42.876,42.273,41.371,49.636,-0.19451,-90.51533,-8.52779
5.013,-0.02290,-0.04948,0.99187,9.78587,0.10780,-0.14304,42.876,42.273,41.371,49.636,-0.19536,-90.51933,-8.52810
5.023,-0.02303,-0.04952,0.99173,9.82539,0.13242,-0.14621,42.876,42.273,41.371,49.747,-0.19467,-90.52345,-8.52842
5.033,-0.02321,-0.04957,0.99062,9.76986,0.12752,-0.15728,42.876,42.273,41.371,49.747,-0.19424,-90.52829,-8.52875
5.043,-0.02317,-0.04974,0.98936,9.79700,0.14974,-0.15004,42.878,42.273,41.371,49.526,-0.19242,-90.53259,-8.52907
5.053,-0.02285,-0.04979,0.98820,9.76054,0.13277,-0.16137,42.878,42.273,41.371,49.747,-0.19164,-90.53761,-8.52939
5.063,-0.02250,-0.05010,0.98793,9.78566,0.11557,-0.11373,42.878,42.273,41.371,49.636,-0.19199,-90.53952,-8.52971
5.073,-0.02223,-0.05023,0.98869,9.78047,0.10317,-0.13138,42.878,42.273,41.371,49.747,-0.19313,-90.54253,-8.53003
5.083,-0.02214,-0.05037,0.98963,9.76017,0.15207,-0.12690,42.878,42.273,41.371,49.636,-0.19113,-90.54525,-8.53034
5.093,-0.02191,-0.05041,0.99012,9.80773,0.09228,-0.15291,42.878,42.273,41.338,49.415,-0.19300,-90.54955,-8.53066
5.103,-0.02191,-0.05050,0.98927,9.82942,0.12542,-0.07378,42.878,42.273,41.338,49.636,-0.19276,-90.54879,-8.53097
5.113,-0.02191,-0.05064,0.98842,9.74817,0.15423,-0.12777,42.878,42.273,41.338,49.747,-0.19060,-90.55151,-8.53129
5.123,-0.02218,-0.05090,0.98825,9.78487,0.12774,-0.14395,42.878,42.273,41.338,49.747,-0.19019,-90.55519,-8.53160
5.133,-0.02259,-0.05081,0.98972,9.82256,0.15340,-0.17609,42.878,42.273,41.338,49.636,-0.18821,-90.56082,-8.53193
5.143,-0.02267,-0.05072,0.99227,9.77994,0.12685,-0.16286,42.878,42.300,41.338,49.747,-0.18791,-90.56561,-8.53225
5.153,-0.02263,-0.05064,0.99419,9.77398,0.06128,-0.12515,42.878,42.300,41.338,49.636,-0.19181,-90.56796,-8.53258
5.163,-0.02241,-0.05081,0.99464,9.78647,0.09737,-0.16509,42.878,42.300,41.338,49.747,-0.19338,-90.57280,-8.53290
5.173,-0.02232,-0.05068,0.99478,9.81993,0.10738,-0.15575,42.878,42.300,41.338,49.747,-0.19432,-90.57697,-8.53322
5.183,-0.02227,-0.05059,0.99451,9.79047,0.12309,-0.17768,42.878,42.300,41.338,49.415,-0.19423,-90.58251,-8.53354
5.193,-0.02236,-0.05037,0.99419,9.76444,0.12823,-0.15651,42.878,42.300,41.338,49.747,-0.19379,-90.58667,-8.53387
5.203,-0.02236,-0.05041,0.99509,9.77837,0.14282,-0.20276,42.878,42.300,41.338,49.415,-0.19244,-90.59371,-8.53419
5.213,-0.02250,-0.05037,0.99706,9.77850,0.11230,-0.14752,42.878,42.300,41.338,49.415,-0.19308,-90.59717,-8.53452
5.223,-0.02276,-0.05037,0.99844,9.79840,0.09640,-0.15096,42.878,42.300,41.338,49.636,-0.19474,-90.60078,-8.53485
5.233,-0.02276,-0.05028,0.99952,9.82879,0.11130,-0.16217,42.878,42.300,41.338,49.636,-0.19547,-90.60504,-8.53519
5.243,-0.02272,-0.05046,0.99978,9.76647,0.11601,-0.14477,42.876,42.300,41.338,49.636,-0.19585,-90.60821,-8.53552
5.253,-0.02250,-0.05046,0.99916,9.84890,0.09251,-0.11253,42.876,42.300,41.338,49.415,-0.19776,-90.60925,-8.53585
5.263,-0.02227,-0.05055,0.99665,9.81659,0.05559,-0.13660,42.876,42.300,41.338,49.526,-0.20195,-90.61180,-8.53618
5.273,-0.02218,-0.05072,0.99437,9.78098,0.16680,-0.15704,42.876,42.300,41.338,49.636,-0.19899,-90.61566,-8.53651
5.283,-0.02214,-0.05104,0.99437,9.77333,0.10369,-0.18046,42.876,42.300,41.338,49.747,-0.20007,-90.62098,-8.53684
5.293,-0.02227,-0.05126,0.99545,9.79756,0.09759,-0.13690,42.876,42.300,41.244,49.636,-0.20155,-90.62346,-8.53717
5.303,-0.02241,-0.05126,0.99469,9.74594,0.12334,-0.06007,42.876,42.300,41.244,49.636,-0.20133,-90.62109,-8.53750
5.313,-0.02276,-0.05126,0.99330,9.77238,0.10990,-0.15557,42.876,42.300,41.244,49.636,-0.20198,-90.62476,-8.53784
5.323,-0.02290,-0.05153,0.99151,9.77779,0.11528,-0.17246,42.876,42.300,41.244,49.747,-0.20226,-90.62948,-8.53817
5.333,-0.02308,-0.05166,0.98883,9.79913,0.11386,-0.09718,42.876,42.300,41.244,49.415,-0.20262,-90.62936,-8.53851
5.343,-0.02303,-0.05162,0.98623,9.78790,0.15360,-0.11030,42.876,42.344,41.244,49.636,-0.20042,-90.63007,-8.53885
5.353,-0.02285,-0.05148,0.98583,9.79280,0.11398,-0.15309,42.876,42.344,41.244,49.636,-0.20075,-90.63348,-8.53919
5.363,-0.02285,-0.05157,0.98704,9.74620,0.13645,-0.16145,42.876,42.344,41.244,49.747,-0.19963,-90.63742,-8.53953
5.373,-0.02290,-0.05139,0.98686,9.81021,0.05842,-0.18770,42.876,42.344,41.244,49.747,-0.20352,-90.64292,-8.53986
5.383,-0.02321,-0.05113,0.98614,9.74633,0.11657,-0.13602,42.876,42.344,41.244,49.636,-0.20363,-90.64515,-8.54021
5.393,-0.02343,-0.05095,0.98596,9.79115,0.10035,-0.09071,42.876,42.344,41.244,49.747,-0.20480,-90.64445,-8.54055
5.403,-0.02370,-0.05077,0.98596,9.76683,0.11337,-0.13229,42.876,42.344,41.244,49.526,-0.20511,-90.64639,-8.54090
5.413,-0.02388,-0.05064,0.98565,9.73560,0.12285,-0.17389,42.876,42.344,41.244,49.636,-0.20478,-90.65099,-8.54125
5.423,-0.02388,-0.05046,0.98632,9.79103,0.07360,-0.17178,42.876,42.344,41.244,49.747,-0.20764,-90.65535,-8.54160
5.433,-0.02393,-0.05046,0.98731,9.75204,0.09054,-0.13545,42.876,42.344,41.244,49.747,-0.20938,-90.65739,-8.54195
5.443,-0.02388,-0.05050,0.98744,9.78150,0.12192,-0.15238,42.872,42.344,41.244,49.747,-0.20912,-90.66047,-8.54230
5.453,-0.02370,-0.05041,0.98726,9.76119,0.13896,-0.14894,42.872,42.344,41.244,49.636,-0.20776,-90.66331,-8.54266
5.463,-0.02348,-0.05019,0.98681,9.75995,0.12882,-0.19352,42.872,42.344,41.244,49.747,-0.20706,-90.66895,-8.54301
5.473,-0.02343,-0.05010,0.98668,9.76744,0.08590,-0.20211,42.872,42.344,41.244,49.636,-0.20910,-90.67506,-8.54335
5.483,-0.02357,-0.04992,0.98655,9.80278,0.13384,-0.10209,42.872,42.344,41.244,49.636,-0.20810,-90.67473,-8.54370
5.493,-0.02370,-0.04983,0.98704,9.81238,0.11582,-0.12929,42.872,42.344,41.352,49.747,-0.20826,-90.67612,-8.54406
5.503,-0.02370,-0.04974,0.98869,9.79691,0.12707,-0.15716,42.872,42.344,41.352,49.747,-0.20772,-90.67927,-8.54441
5.513,-0.02361,-0.04983,0.99057,9.79955,0.12677,-0.14107,42.872,42.344,41.352,49.636,-0.20722,-90.68136,-8.54477
5.523,-0.02335,-0.04983,0.99138,9.78660,0.15560,-0.08137,42.872,42.344,41.352,49.526,-0.20489,-90.67966,-8.54512
5.533,-0.02312,-0.05001,0.99147,9.82879,0.13556,-0.13656,42.872,42.344,41.352,49.636,-0.20389,-90.68143,-8.54547
5.543,-0.02290,-0.05001,0.99084,9.85316,0.09871,-0.22391,42.872,42.334,41.352,49.636,-0.20525,-90.68867,-8.54581
5.553,-0.02281,-0.04997,0.98981,9.75779,0.09331,-0.13223,42.872,42.334,41.352,49.636,-0.20686,-90.69015,-8.54616
5.563,-0.02285,-0.05001,0.99084,9.79694,0.10347,-0.09834,42.872,42.334,41.352,49.636,-0.20785,-90.68942,-8.54651
5.573,-0.02285,-0.05028,0.99379,9.79677,0.11850,-0.19290,42.872,42.334,41.352,49.636,-0.20790,-90.69469,-8.54686
5.583,-0.02303,-0.05046,0.99625,9.74112,0.12503,-0.11518,42.872,42.334,41.352,49.747,-0.20752,-90.69503,-8.54721
5.593,-0.02299,-0.05064,0.99625,9.80271,0.09375,-0.15696,42.872,42.334,41.352,49.747,-0.20917,-90.69796,-8.54756
5.603,-0.02290,-0.05064,0.99442,9.79081,0.04183,-0.02969,42.872,42.334,41.352,49.747,-0.21408,-90.69287,-8.54791
5.613,-0.02272,-0.05086,0.99272,9.79384,0.09964,-0.08426,42.872,42.334,41.352,49.636,-0.21524,-90.69124,-8.54826
5.623,-0.02250,-0.05077,0.99147,9.79001,0.10907,-0.12011,42.872,42.334,41.352,49.636,-0.21579,-90.69189,-8.54860
5.633,-0.02232,-0.05068,0.99066,9.78614,0.10599,-0.11086,42.872,42.334,41.352,49.526,-0.21651,-90.69195,-8.54895
5.643,-0.02214,-0.05068,0.98959,9.74641,0.14838,-0.15146,42.870,42.334,41.352,49.747,-0.21448,-90.69462,-8.54929
5.653,-0.02218,-0.05086,0.98896,9.78631,0.09674,-0.12328,42.870,42.334,41.352,49.747,-0.21578,-90.69544,-8.54963
5.663,-0.02227,-0.05095,0.98802,9.77110,0.09371,-0.17439,42.870,42.334,41.352,49.747,-0.21725,-90.69951,-8.54997
5.673,-0.02250,-0.05095,0.98722,9.84142,0.08843,-0.15958,42.870,42.334,41.352,49.636,-0.21907,-90.70252,-8.55032
5.683,-0.02263,-0.05099,0.98699,9.75394,0.09288,-0.13305,42.870,42.334,41.352,49.636,-0.22053,-90.70391,-8.55066
5.693,-0.02250,-0.05099,0.98646,9.81367,0.10395,-0.12681,42.870,42.334,41.327,49.747,-0.22131,-90.70483,-8.55101
5.703,-0.02232,-0.05081,0.98650,9.82693,0.08499,-0.10333,42.870,42.334,41.327,49.747,-0.22328,-90.70425,-8.55136
5.713,-0.02218,-0.05050,0.98825,9.77261,0.12858,-0.07928,42.870,42.334,41.327,49.747,-0.22245,-90.70219,-8.55170
5.723,-0.02227,-0.05046,0.99205,9.82061,0.11544,-0.15740,42.870,42.334,41.327,49.636,-0.22254,-90.70505,-8.55204
5.733,-0.02236,-0.05072,0.99513,9.79886,0.07894,-0.21118,42.870,42.334,41.327,49.747,-0.22496,-90.71131,-8.55239
5.743,-0.02236,-0.05077,0.99549,9.77903,0.09356,-0.13093,42.870,42.335,41.327,49.415,-0.22641,-90.71244,-8.55274
5.753,-0.02245,-0.05099,0.99437,9.76092,0.12366,-0.13398,42.870,42.335,41.327,49.747,-0.22591,-90.71377,-8.55309
5.763,-0.02267,-0.05126,0.99343,9.81121,0.09879,-0.17102,42.870,42.335,41.327,49.747,-0.22702,-90.71738,-8.55344
5.773,-0.02281,-0.05130,0.99348,9.77438,0.17702,-0.17642,42.870,42.335,41.327,49.636,-0.22312,-90.72134,-8.55379
5.783,-0.02285,-0.05126,0.99522,9.83497,0.09275,-0.10776,42.870,42.335,41.327,49.747,-0.22468,-90.72086,-8.55415
5.793,-0.02272,-0.05099,0.99715,9.78570,0.08748,-0.13650,42.870,42.335,41.327,49.747,-0.22654,-90.72224,-8.55450
5.803,-0.02250,-0.05068,0.99885,9.75538,0.10704,-0.14920,42.870,42.335,41.327,49.636,-0.22714,-90.72443,-8.55485
5.813,-0.02232,-0.05046,0.99925,9.72173,0.06273,-0.19937,42.870,42.335,41.327,49.747,-0.23054,-90.72984,-8.55520
5.823,-0.02223,-0.05037,0.99934,9.80854,0.14534,-0.12705,42.870,42.335,41.327,49.747,-0.22871,-90.73049,-8.55555
5.833,-0.02223,-0.05023,0.99844,9.73561,0.14406,-0.14345,42.870,42.335,41.327,49.636,-0.22690,-90.73225,-8.55590
5.843,-0.02232,-0.05037,0.99697,9.77896,0.10844,-0.15594,42.876,42.335,41.327,49.747,-0.22741,-90.73473,-8.55625
5.853,-0.02245,-0.05028,0.99639,9.78106,0.08978,-0.23463,42.876,42.335,41.327,49.747,-0.22908,-90.74219,-8.55660
5.863,-0.02259,-0.05001,0.99701,9.77341,0.10401,-0.20017,42.876,42.335,41.327,49.747,-0.22984,-90.74737,-8.55695
5.873,-0.02267,-0.04983,0.99786,9.78694,0.11701,-0.14670,42.876,42.335,41.327,49.636,-0.22978,-90.74909,-8.55731
5.883,-0.02267,-0.04952,0.99710,9.76669,0.13203,-0.05922,42.876,42.335,41.327,49.636,-0.22874,-90.74526,-8.55767
5.893,-0.02259,-0.04943,0.99522,9.75135,0.11892,-0.14124,42.876,42.335,41.337,49.636,-0.22852,-90.74669,-8.55803
5.903,-0.02245,-0.04952,0.99294,9.77541,0.11873,-0.16686,42.876,42.335,41.337,49.526,-0.22831,-90.74969,-8.55838
5.913,-0.02241,-0.04948,0.99039,9.77305,0.13471,-0.20073,42.876,42.335,41.337,49.526,-0.22705,-90.75484,-8.55873
5.923,-0.02236,-0.04966,0.98950,9.82490,0.20543,-0.23465,42.876,42.335,41.337,49.747,-0.22138,-90.76199,-8.55909
5.933,-0.02250,-0.05001,0.98896,9.79520,0.10140,-0.13854,42.876,42.335,41.337,49.636,-0.22232,-90.76303,-8.55945
5.943,-0.02263,-0.05046,0.98842,9.79787,0.08396,-0.08054,42.876,42.344,41.337,49.636,-0.22435,-90.76039,-8.55980
5.953,-0.02281,-0.05077,0.98650,9.79379,0.07055,-0.17698,42.876,42.344,41.337,49.747,-0.22719,-90.76389,-8.56016
5.963,-0.02290,-0.05090,0.98404,9.80233,0.13807,-0.09930,42.876,42.344,41.337,49.747,-0.22570,-90.76243,-8.56052
5.973,-0.02267,-0.05077,0.98198,9.76744,0.10598,-0.16522,42.876,42.344,41.337,49.636,-0.22622,-90.76519,-8.56088
5.983,-0.02245,-0.05086,0.98064,9.74058,0.11845,-0.24381,42.876,42.344,41.337,49.636,-0.22590,-90.77296,-8.56124
5.993,-0.02223,-0.05108,0.98033,9.82687,0.12230,-0.19480,42.876,42.344,41.337,49.747,-0.22540,-90.77741,-8.56159
6.003,-0.02214,-0.05122,0.98252,9.77917,0.11923,-0.14393,42.876,42.344,41.337,49.636,-0.22509,-90.77866,-8.56195
6.013,-0.02191,-0.05139,0.98673,9.74989,0.08165,-0.14909,42.876,42.344,41.337,49.636,-0.22720,-90.78024,-8.56230
6.023,-0.02187,-0.05157,0.98981,9.80061,0.06168,-0.21269,42.876,42.344,41.337,49.526,-0.23061,-90.78579,-8.56265
6.033,-0.02200,-0.05166,0.99200,9.79872,0.13023,-0.13707,42.876,42.344,41.337,49.747,-0.22965,-90.78649,-8.56301
6.043,-0.02223,-0.05162,0.99254,9.76785,0.06383,-0.14570,42.880,42.344,41.337,49.636,-0.23291,-90.78777,-8.56337
6.053,-0.02245,-0.05139,0.99173,9.76385,0.08557,-0.17317,42.880,42.344,41.337,49.747,-0.23474,-90.79076,-8.56373
6.063,-0.02236,-0.05135,0.99160,9.83969,0.08703,-0.11213,42.880,42.344,41.337,49.636,-0.23650,-90.78979,-8.56409
6.073,-0.02227,-0.05104,0.99294,9.80943,0.16990,-0.13080,42.880,42.344,41.337,49.747,-0.23298,-90.79005,-8.56445
6.083,-0.02200,-0.05072,0.99558,9.77689,0.12557,-0.07643,42.880,42.344,41.337,49.747,-0.23231,-90.78687,-8.56481
6.093,-0.02196,-0.05068,0.99759,9.79276,0.12010,-0.16197,42.880,42.344,41.386,49.636,-0.23203,-90.78913,-8.56516
6.103,-0.02223,-0.05095,0.99840,9.76954,0.08237,-0.23143,42.880,42.344,41.386,49.747,-0.23415,-90.79581,-8.56552
6.113,-0.02232,-0.05113,0.99791,9.80530,0.12466,-0.21783,42.880,42.344,41.386,49.526,-0.23357,-90.80151,-8.56588
6.123,-0.02245,-0.05117,0.99697,9.82271,0.14492,-0.18690,42.880,42.344,41.386,49.636,-0.23172,-90.80516,-8.56625
6.133,-0.02263,-0.05122,0.99554,9.73368,0.12958,-0.10478,42.880,42.344,41.386,49.857,-0.23077,-90.80365,-8.56662
6.143,-0.02294,-0.05117,0.99410,9.81029,0.11744,-0.09674,42.880,42.342,41.386,49.636,-0.23065,-90.80159,-8.56698
6.153,-0.02294,-0.05104,0.99446,9.80066,0.09799,-0.14171,42.880,42.342,41.386,49.636,-0.23177,-90.80241,-8.56735
6.163,-0.02267,-0.05086,0.99375,9.77859,0.09444,-0.21135,42.880,42.342,41.386,49.415,-0.23308,-90.80766,-8.56772
6.173,-0.02236,-0.05086,0.99303,9.78464,0.13027,-0.18900,42.880,42.342,41.386,49.305,-0.23209,-90.81141,-8.56808
6.183,-0.02218,-0.05081,0.99254,9.74523,0.14838,-0.14584,42.880,42.342,41.386,49.636,-0.22992,-90.81242,-8.56845
6.193,-0.02218,-0.05055,0.99227,9.75334,0.12421,-0.17141,42.880,42.342,41.386,49.526,-0.22932,-90.81506,-8.56881
6.203,-0.02214,-0.05028,0.99156,9.81120,0.10822,-0.10232,42.880,42.342,41.386,49.747,-0.22977,-90.81322,-8.56917
6.213,-0.02227,-0.05015,0.99124,9.83466,0.11998,-0.11112,42.880,42.342,41.386,49.636,-0.22950,-90.81195,-8.56954
6.223,-0.02232,-0.04997,0.99182,9.77222,0.11306,-0.12785,42.880,42.342,41.386,49.415,-0.22962,-90.81178,-8.56990
6.233,-0.02241,-0.04997,0.99232,9.75418,0.09299,-0.09847,42.880,42.342,41.386,49.747,-0.23101,-90.80978,-8.57026
6.243,-0.02250,-0.04997,0.99156,9.72704,0.12584,-0.16832,42.876,42.342,41.386,49.636,-0.23027,-90.81226,-8.57063
6.253,-0.02245,-0.04992,0.98968,9.78217,0.08261,-0.20403,42.876,42.342,41.386,49.415,-0.23230,-90.81692,-8.57100
6.263,-0.02236,-0.04988,0.98775,9.77188,0.14984,-0.14814,42.876,42.342,41.386,49.415,-0.23002,-90.81799,-8.57136
6.273,-0.02232,-0.05001,0.98628,9.76022,0.10238,-0.18413,42.876,42.342,41.386,49.747,-0.23075,-90.82135,-8.57172
6.283,-0.02227,-0.05010,0.98605,9.87049,0.11446,-0.16482,42.876,42.342,41.386,49.636,-0.23079,-90.82333,-8.57209
6.293,-0.02236,-0.05015,0.98851,9.81687,0.07165,-0.15638,42.876,42.342,41.367,49.636,-0.23352,-90.82481,-8.57245
6.303,-0.02245,-0.05032,0.99106,9.81571,0.09970,-0.14206,42.876,42.342,41.367,49.747,-0.23447,-90.82538,-8.57282
6.313,-0.02267,-0.05068,0.99156,9.78276,0.11082,-0.14548,42.876,42.342,41.367,49.636,-0.23469,-90.82618,-8.57319
6.323,-0.02294,-0.05090,0.99021,9.78769,0.12578,-0.16725,42.876,42.342,41.367,49.636,-0.23394,-90.82835,-8.57356
6.333,-0.02317,-0.05113,0.98887,9.76570,0.08185,-0.14299,42.876,42.342,41.367,49.636,-0.23597,-90.82899,-8.57394
6.343,-0.02312,-0.05130,0.98740,9.78969,0.07335,-0.12756,42.876,42.324,41.367,49.636,-0.23851,-90.82864,-8.57431
6.353,-0.02303,-0.05184,0.98659,9.79297,0.09597,-0.14536,42.876,42.324,41.367,49.747,-0.23959,-90.82941,-8.57468
6.363,-0.02276,-0.05215,0.98735,9.78738,0.13932,-0.13113,42.876,42.324,41.367,49.415,-0.23790,-90.82927,-8.57505
6.373,-0.02263,-0.05237,0.98954,9.78268,0.11468,-0.13907,42.876,42.324,41.367,49.636,-0.23781,-90.82965,-8.57542
6.383,-0.02254,-0.05242,0.99075,9.72894,0.10991,-0.11676,42.876,42.324,41.367,49.636,-0.23800,-90.82865,-8.57579
6.393,-0.02254,-0.05273,0.99048,9.80962,0.10823,-0.09549,42.876,42.324,41.367,49.526,-0.23835,-90.82626,-8.57616
6.403,-0.02254,-0.05282,0.98927,9.82482,0.11325,-0.13968,42.876,42.324,41.367,49.526,-0.23838,-90.82668,-8.57653
6.413,-0.02281,-0.05282,0.98686,9.79055,0.09154,-0.20002,42.876,42.324,41.367,49.747,-0.23974,-90.83094,-8.57690
6.423,-0.02312,-0.05264,0.98431,9.73287,0.09029,-0.26259,42.876,42.324,41.367,49.747,-0.24111,-90.83923,-8.57727
6.433,-0.02317,-0.05255,0.98422,9.77554,0.13452,-0.14885,42.876,42.324,41.367,49.636,-0.23967,-90.84013,-8.57765
6.443,-0.02290,-0.05224,0.98641,9.81539,0.10535,-0.17305,42.878,42.324,41.367,49.636,-0.24014,-90.84251,-8.57802
6.453,-0.02259,-0.05215,0.98802,9.76992,0.11835,-0.14598,42.878,42.324,41.367,49.747,-0.23978,-90.84319,-8.57839
6.463,-0.02236,-0.05224,0.98842,9.78920,0.12772,-0.16363,42.878,42.324,41.367,49.636,-0.23884,-90.84496,-8.57876
6.473,-0.02245,-0.05233,0.98869,9.81998,0.11875,-0.20084,42.878,42.324,41.367,49.636,-0.23850,-90.84904,-8.57913
6.483,-0.02259,-0.05197,0.98865,9.73360,0.11793,-0.14453,42.878,42.324,41.367,49.636,-0.23816,-90.84959,-8.57950
6.493,-0.02276,-0.05148,0.98757,9.77150,0.11377,-0.14233,42.878,42.324,41.347,49.747,-0.23810,-90.84996,-8.57987
6.503,-0.02290,-0.05108,0.98713,9.74652,0.11414,-0.17501,42.878,42.324,41.347,49.415,-0.23799,-90.85242,-8.58025
6.513,-0.02312,-0.05095,0.98816,9.81058,0.11760,-0.16630,42.878,42.324,41.347,49.747,-0.23773,-90.85423,-8.58063
6.523,-0.02312,-0.05072,0.98856,9.80435,0.09445,-0.18108,42.878,42.324,41.347,49.636,-0.23893,-90.85696,-8.58101
6.533,-0.02303,-0.05050,0.98780,9.80752,0.12439,-0.19248,42.878,42.324,41.347,49.415,-0.23822,-90.86037,-8.58138
6.543,-0.02281,-0.05032,0.98735,9.81155,0.09806,-0.15896,42.878,42.345,41.347,49.747,-0.23919,-90.86163,-8.58176
6.553,-0.02259,-0.05050,0.98668,9.75968,0.10173,-0.14634,42.878,42.345,41.347,49.747,-0.23987,-90.86212,-8.58213
6.563,-0.02259,-0.05050,0.98512,9.78886,0.12008,-0.15234,42.878,42.345,41.347,49.415,-0.23938,-90.86296,-8.58251
6.573,-0.02250,-0.05050,0.98476,9.82023,0.08510,-0.16408,42.878,42.345,41.347,49.636,-0.24113,-90.86451,-8.58288
6.583,-0.02254,-0.05046,0.98659,9.74886,0.06746,-0.14138,42.878,42.345,41.347,49.636,-0.24396,-90.86466,-8.58326
6.593,-0.02272,-0.05055,0.98838,9.81964,0.11111,-0.18834,42.878,42.345,41.347,49.747,-0.24406,-90.86771,-8.58363
6.603,-0.02281,-0.05072,0.98838,9.83950,0.09478,-0.08926,42.878,42.345,41.347,49.747,-0.24519,-90.86447,-8.58401
6.613,-0.02272,-0.05090,0.98740,9.78147,0.13411,-0.17978,42.878,42.345,41.347,49.636,-0.24377,-90.86703,-8.58439
6.623,-0.02263,-0.05095,0.98659,9.79465,0.10008,-0.18759,42.878,42.345,41.347,49.747,-0.24453,-90.87006,-8.58476
6.633,-0.02254,-0.05095,0.98543,9.80882,0.08330,-0.20312,42.878,42.345,41.347,49.747,-0.24634,-90.87401,-8.58514
6.643,-0.02236,-0.05099,0.98574,9.80873,0.09782,-0.22370,42.874,42.345,41.347,49.636,-0.24721,-90.87922,-8.58551
6.653,-0.02218,-0.05086,0.98834,9.74849,0.11072,-0.17297,42.874,42.345,41.347,49.747,-0.24724,-90.88123,-8.58588
6.663,-0.02209,-0.05086,0.99160,9.79931,0.08832,-0.16137,42.874,42.345,41.347,49.636,-0.24876,-90.88242,-8.58626
6.673,-0.02218,-0.05113,0.99303,9.78336,0.10001,-0.16673,42.874,42.345,41.347,49.747,-0.24952,-90.88396,-8.58663
6.683,-0.02236,-0.05122,0.99366,9.79694,0.11753,-0.13862,42.874,42.345,41.347,49.415,-0.24918,-90.88370,-8.58701
6.693,-0.02236,-0.05122,0.99375,9.81779,0.11102,-0.20765,42.874,42.345,41.350,49.636,-0.24927,-90.88778,-8.58739
6.703,-0.02245,-0.05144,0.99317,9.73846,0.09880,-0.14320,42.874,42.345,41.350,49.636,-0.25008,-90.88781,-8.58776
6.713,-0.02236,-0.05175,0.99285,9.78940,0.14727,-0.17298,42.874,42.345,41.350,49.747,-0.24783,-90.88969,-8.58814
6.723,-0.02209,-0.05184,0.99393,9.80334,0.12725,-0.12457,42.874,42.345,41.350,49.636,-0.24689,-90.88847,-8.58852
6.733,-0.02187,-0.05184,0.99598,9.80438,0.11716,-0.16110,42.874,42.345,41.350,49.747,-0.24663,-90.88958,-8.58889
6.743,-0.02182,-0.05175,0.99661,9.85122,0.08272,-0.17760,42.874,42.318,41.350,49.526,-0.24859,-90.89166,-8.58926
6.753,-0.02182,-0.05179,0.99603,9.77673,0.09162,-0.12852,42.874,42.318,41.350,49.415,-0.24991,-90.89069,-8.58964
6.763,-0.02191,-0.05175,0.99540,9.80611,0.13674,-0.16723,42.874,42.318,41.350,49.636,-0.24838,-90.89216,-8.59001
6.773,-0.02209,-0.05157,0.99402,9.76802,0.14940,-0.14977,42.874,42.318,41.350,49.636,-0.24600,-90.89254,-8.59039
6.783,-0.02241,-0.05157,0.99245,9.73561,0.10268,-0.12071,42.874,42.318,41.350,49.415,-0.24658,-90.89109,-8.59076
6.793,-0.02263,-0.05166,0.99267,9.78242,0.11648,-0.17325,42.874,42.318,41.350,49.968,-0.24632,-90.89296,-8.59114
6.803,-0.02245,-0.05139,0.99410,9.77866,0.10419,-0.16355,42.874,42.318,41.350,49.747,-0.24685,-90.89419,-8.59152
6.813,-0.02227,-0.05122,0.99469,9.78963,0.14892,-0.14002,42.874,42.318,41.350,49.636,-0.24455,-90.89391,-8.59190
6.823,-0.02227,-0.05108,0.99433,9.79700,0.15012,-0.15125,42.874,42.318,41.350,49.636,-0.24220,-90.89433,-8.59228
6.833,-0.02232,-0.05104,0.99276,9.79267,0.12435,-0.15274,42.874,42.318,41.350,49.747,-0.24150,-90.89484,-8.59266
6.843,-0.02232,-0.05108,0.99173,9.78783,0.12111,-0.18652,42.871,42.318,41.350,49.747,-0.24099,-90.89751,-8.59303
6.853,-0.02241,-0.05108,0.99173,9.79936,0.09056,-0.17907,42.871,42.318,41.350,49.636,-0.24243,-90.89965,-8.59341
6.863,-0.02254,-0.05086,0.99348,9.77331,0.09457,-0.15147,42.871,42.318,41.350,49.636,-0.24361,-90.90004,-8.59379
6.873,-0.02259,-0.05072,0.99656,9.71772,0.10334,-0.09265,42.871,42.318,41.350,49.636,-0.24421,-90.89673,-8.59418
6.883,-0.02281,-0.05072,0.99893,9.71542,0.09539,-0.16700,42.871,42.318,41.350,49.636,-0.24533,-90.89821,-8.59456
6.893,-0.02285,-0.05064,0.99952,9.78193,0.12531,-0.17250,42.871,42.318,41.356,49.415,-0.24459,-90.89994,-8.59494
6.903,-0.02272,-0.05059,0.99916,9.82271,0.12446,-0.22298,42.871,42.318,41.356,49.747,-0.24393,-90.90480,-8.59533
6.913,-0.02254,-0.05059,0.99831,9.80049,0.12665,-0.18087,42.871,42.318,41.356,49.636,-0.24312,-90.90697,-8.59571
6.923,-0.02245,-0.05068,0.99674,9.79458,0.10241,-0.17835,42.871,42.318,41.356,49.636,-0.24384,-90.90897,-8.59609
6.933,-0.02259,-0.05064,0.99594,9.78600,0.10838,-0.08193,42.871,42.318,41.356,49.305,-0.24415,-90.90484,-8.59648
6.943,-0.02267,-0.05050,0.99737,9.82162,0.14820,-0.12018,42.871,42.279,41.356,49.747,-0.24198,-90.90315,-8.59686
6.953,-0.02276,-0.05050,0.99974,9.78518,0.10544,-0.15589,42.871,42.279,41.356,49.526,-0.24254,-90.90377,-8.59725
6.963,-0.02299,-0.05055,1.00063,9.83646,0.07881,-0.14789,42.871,42.279,41.356,49.636,-0.24482,-90.90383,-8.59763
6.973,-0.02330,-0.05019,0.99938,9.76798,0.09636,-0.17442,42.871,42.279,41.356,49.636,-0.24591,-90.90564,-8.59802
6.983,-0.02343,-0.04997,0.99652,9.75443,0.07987,-0.12132,42.871,42.279,41.356,49.747,-0.24801,-90.90406,-8.59842
6.993,-0.02352,-0.04992,0.99232,9.77811,0.09451,-0.18924,42.871,42.279,41.356,49.636,-0.24912,-90.90679,-8.59881
7.003,-0.02361,-0.05006,0.98910,9.77363,0.09920,-0.14707,42.871,42.279,41.356,49.857,-0.24988,-90.90682,-8.59920
7.013,-0.02339,-0.05001,0.98802,9.80516,0.11299,-0.15022,42.871,42.279,41.356,49.636,-0.24978,-90.90702,-8.59959
7.023,-0.02326,-0.05010,0.98829,9.77340,0.11915,-0.14918,42.871,42.279,41.356,49.415,-0.24926,-90.90717,-8.59998
7.033,-0.02330,-0.05028,0.98825,9.81220,0.10045,-0.13524,42.871,42.279,41.356,49.747,-0.24996,-90.90643,-8.60037
7.043,-0.02343,-0.05050,0.98753,9.77646,0.14612,-0.12639,42.878,42.279,41.356,49.305,-0.24772,-90.90514,-8.60076
7.053,-0.02361,-0.05037,0.98757,9.73526,0.10760,-0.14205,42.878,42.279,41.356,49.636,-0.24792,-90.90491,-8.60115
7.063,-0.02384,-0.05050,0.98762,9.75715,0.13830,-0.10392,42.878,42.279,41.356,49.747,-0.24618,-90.90224,-8.60154
7.073,-0.02384,-0.05050,0.98704,9.78133,0.13840,-0.15850,42.878,42.279,41.356,49.636,-0.24447,-90.90305,-8.60193
7.083,-0.02375,-0.05059,0.98708,9.75778,0.10701,-0.16808,42.878,42.279,41.356,49.747,-0.24476,-90.90447,-8.60233
7.093,-0.02348,-0.05059,0.98860,9.80341,0.05282,-0.11694,42.878,42.279,41.338,49.526,-0.24853,-90.90260,-8.60272
7.103,-0.02326,-0.05055,0.98905,9.77364,0.10527,-0.16760,42.878,42.279,41.338,49.747,-0.24892,-90.90398,-8.60311
7.113,-0.02321,-0.05037,0.98825,9.78291,0.05876,-0.22079,42.878,42.279,41.338,49.415,-0.25225,-90.90872,-8.60349
7.123,-0.02303,-0.05050,0.98749,9.81232,0.09580,-0.15050,42.878,42.279,41.338,49.636,-0.25321,-90.90891,-8.60388
7.133,-0.02294,-0.05050,0.98690,9.77530,0.15600,-0.15339,42.878,42.279,41.338,49.747,-0.25030,-90.90932,-8.60427
7.143,-0.02299,-0.05059,0.98677,9.78637,0.07965,-0.18350,42.878,42.329,41.338,49.747,-0.25228,-90.91163,-8.60465
7.153,-0.02308,-0.05068,0.98784,9.80990,0.13341,-0.14025,42.878,42.329,41.338,49.636,-0.25085,-90.91114,-8.60504
7.163,-0.02312,-0.05068,0.99035,9.81758,0.14381,-0.15756,42.878,42.329,41.338,49.415,-0.24881,-90.91175,-8.60543
7.173,-0.02299,-0.05050,0.99254,9.77169,0.07949,-0.18235,42.878,42.329,41.338,49.636,-0.25087,-90.91398,-8.60581
7.183,-0.02281,-0.05019,0.99263,9.79645,0.14004,-0.17774,42.878,42.329,41.338,49.415,-0.24907,-90.91585,-8.60620
7.193,-0.02263,-0.04992,0.99169,9.80176,0.07988,-0.16936,42.878,42.329,41.338,49.747,-0.25111,-90.91716,-8.60658
7.203,-0.02263,-0.04988,0.99057,9.85626,0.09980,-0.13907,42.878,42.329,41.338,49.747,-0.25188,-90.91650,-8.60697
7.213,-0.02259,-0.04974,0.98941,9.75808,0.09681,-0.11737,42.878,42.329,41.338,49.415,-0.25276,-90.91455,-8.60736
7.223,-0.02272,-0.04957,0.98995,9.80644,0.11206,-0.08588,42.878,42.329,41.338,49.636,-0.25270,-90.91060,-8.60774
7.233,-0.02290,-0.04974,0.99267,9.76344,0.12688,-0.09820,42.878,42.329,41.338,49.747,-0.25170,-90.90749,-8.60813
7.243,-0.02308,-0.05015,0.99536,9.80167,0.09402,-0.18672,42.879,42.329,41.338,49.636,-0.25284,-90.91000,-8.60851
7.253,-0.02330,-0.05023,0.99612,9.78414,0.11705,-0.12460,42.879,42.329,41.338,49.747,-0.25251,-90.90857,-8.60891
7.263,-0.02335,-0.05019,0.99545,9.77637,0.15075,-0.11797,42.879,42.329,41.338,49.636,-0.25002,-90.90673,-8.60930
7.273,-0.02326,-0.05006,0.99419,9.81560,0.10511,-0.13163,42.879,42.329,41.338,49.747,-0.25048,-90.90575,-8.60969
7.283,-0.02321,-0.05010,0.99276,9.72405,0.07485,-0.14112,42.879,42.329,41.338,49.415,-0.25279,-90.90546,-8.61007
7.293,-0.02312,-0.05019,0.99187,9.77879,0.10219,-0.19008,42.879,42.329,41.397,49.747,-0.25336,-90.90822,-8.61046
7.303,-0.02303,-0.05015,0.99263,9.76635,0.09603,-0.15231,42.879,42.329,41.397,49.747,-0.25431,-90.90858,-8.61085
7.313,-0.02312,-0.05037,0.99446,9.78299,0.08479,-0.12805,42.879,42.329,41.397,49.747,-0.25600,-90.90738,-8.61124
7.323,-0.02317,-0.05050,0.99527,9.74283,0.14127,-0.19929,42.879,42.329,41.397,49.747,-0.25404,-90.91077,-8.61163
7.333,-0.02330,-0.05072,0.99495,9.75447,0.12045,-0.15329,42.879,42.329,41.397,49.636,-0.25345,-90.91117,-8.61202
7.343,-0.02330,-0.05086,0.99455,9.85970,0.13933,-0.14891,42.879,42.322,41.397,49.526,-0.25175,-90.91119,-8.61241
7.353,-0.02321,-0.05095,0.99325,9.74549,0.08019,-0.11010,42.879,42.322,41.397,49.747,-0.25372,-90.90886,-8.61280
7.363,-0.02303,-0.05086,0.99236,9.77636,0.13069,-0.15084,42.879,42.322,41.397,49.636,-0.25246,-90.90911,-8.61319
7.373,-0.02285,-0.05081,0.99339,9.77256,0.12870,-0.15969,42.879,42.322,41.397,49.636,-0.25136,-90.90993,-8.61358
7.383,-0.02267,-0.05055,0.99616,9.80806,0.10906,-0.18717,42.879,42.322,41.397,49.636,-0.25157,-90.91244,-8.61396
7.393,-0.02259,-0.05041,0.99826,9.79595,0.11055,-0.15949,42.879,42.322,41.397,49.636,-0.25169,-90.91317,-8.61435
7.403,-0.02263,-0.05041,0.99867,9.76387,0.14509,-0.16102,42.879,42.322,41.397,49.636,-0.24960,-90.91403,-8.61473
7.413,-0.02276,-0.05037,0.99800,9.78702,0.09192,-0.18919,42.879,42.322,41.397,49.747,-0.25092,-90.91665,-8.61512
7.423,-0.02294,-0.05023,0.99697,9.75057,0.09352,-0.16000,42.879,42.322,41.397,49.747,-0.25209,-90.91742,-8.61551
7.433,-0.02326,-0.05015,0.99603,9.72400,0.11664,-0.15381,42.879,42.322,41.397,49.747,-0.25174,-90.91781,-8.61590
7.443,-0.02317,-0.05001,0.99643,9.75301,0.10820,-0.13876,42.878,42.322,41.397,49.415,-0.25196,-90.91721,-8.61630
7.453,-0.02303,-0.04992,0.99804,9.80435,0.09665,-0.09706,42.878,42.322,41.397,49.636,-0.25297,-90.91393,-8.61669
7.463,-0.02267,-0.04979,0.99952,9.78872,0.07053,-0.16494,42.878,42.322,41.397,49.747,-0.25563,-90.91501,-8.61707
7.473,-0.02267,-0.04952,0.99876,9.79603,0.10896,-0.17476,42.878,42.322,41.397,49.747,-0.25581,-90.91667,-8.61746
7.483,-0.02263,-0.04930,0.99764,9.78793,0.09707,-0.14378,42.878,42.322,41.397,49.747,-0.25673,-90.91637,-8.61784
7.493,-0.02272,-0.04934,0.99598,9.77478,0.10568,-0.16318,42.878,42.322,41.360,49.857,-0.25707,-90.91731,-8.61823
7.503,-0.02290,-0.04948,0.99469,9.79127,0.12460,-0.18653,42.878,42.322,41.360,49.636,-0.25621,-90.91970,-8.61862
7.513,-0.02312,-0.04966,0.99424,9.83915,0.10654,-0.12993,42.878,42.322,41.360,49.747,-0.25652,-90.91844,-8.61901
7.523,-0.02317,-0.04966,0.99549,9.78842,0.12050,-0.14189,42.878,42.322,41.360,49.636,-0.25593,-90.91801,-8.61940
7.533,-0.02321,-0.04970,0.99683,9.76804,0.09935,-0.19735,42.878,42.322,41.360,49.747,-0.25668,-90.92111,-8.61979
7.543,-0.02312,-0.04979,0.99692,9.83875,0.10844,-0.13276,42.878,42.321,41.360,49.747,-0.25690,-90.92002,-8.62018
7.553,-0.02303,-0.04997,0.99630,9.76776,0.08740,-0.09597,42.878,42.321,41.360,49.415,-0.25840,-90.91667,-8.62057
7.563,-0.02281,-0.05010,0.99504,9.80219,0.09613,-0.13084,42.878,42.321,41.360,49.747,-0.25934,-90.91553,-8.62096
7.573,-0.02267,-0.05032,0.99276,9.78966,0.08364,-0.14933,42.878,42.321,41.360,49.636,-0.26103,-90.91560,-8.62135
7.583,-0.02263,-0.05059,0.99205,9.76072,0.12275,-0.17660,42.878,42.321,41.360,49.747,-0.26019,-90.91743,-8.62173
7.593,-0.02285,-0.05086,0.99263,9.76563,0.10807,-0.10654,42.878,42.321,41.360,49.747,-0.26030,-90.91479,-8.62212
7.603,-0.02299,-0.05126,0.99415,9.80317,0.07476,-0.21275,42.878,42.321,41.360,49.747,-0.26256,-90.91888,-8.62251
7.613,-0.02317,-0.05148,0.99437,9.75882,0.14049,-0.14172,42.878,42.321,41.360,49.636,-0.26059,-90.91846,-8.62290
7.623,-0.02312,-0.05148,0.99388,9.76010,0.06833,-0.15058,42.878,42.321,41.360,49.636,-0.26324,-90.91861,-8.62329
7.633,-0.02299,-0.05113,0.99258,9.74089,0.06156,-0.15706,42.878,42.321,41.360,49.857,-0.26626,-90.91919,-8.62368
7.643,-0.02281,-0.05099,0.99080,9.75822,0.09823,-0.15477,42.876,42.321,41.360,49.636,-0.26691,-90.91960,-8.62406
7.653,-0.02276,-0.05104,0.98981,9.78594,0.14227,-0.16453,42.876,42.321,41.360,49.636,-0.26476,-90.92059,-8.62445
7.663,-0.02267,-0.05113,0.99062,9.80181,0.11969,-0.20012,42.876,42.321,41.360,49.636,-0.26409,-90.92382,-8.62484
7.673,-0.02259,-0.05104,0.99209,9.79430,0.12164,-0.16438,42.876,42.321,41.360,49.636,-0.26332,-90.92476,-8.62522
7.683,-0.02254,-0.05086,0.99258,9.77432,0.11334,-0.16804,42.876,42.321,41.360,49.636,-0.26306,-90.92593,-8.62561
7.693,-0.02267,-0.05081,0.99245,9.86119,0.13445,-0.12154,42.876,42.321,41.346,49.636,-0.26154,-90.92407,-8.62600
7.703,-0.02285,-0.05099,0.99272,9.79088,0.11813,-0.16961,42.876,42.321,41.346,49.636,-0.26102,-90.92534,-8.62639
7.713,-0.02294,-0.05099,0.99182,9.76702,0.12798,-0.12553,42.876,42.321,41.346,49.636,-0.25985,-90.92382,-8.62678
7.723,-0.02290,-0.05081,0.99138,9.77876,0.06997,-0.18468,42.876,42.321,41.346,49.747,-0.26238,-90.92606,-8.62716
7.733,-0.02276,-0.05072,0.99294,9.75114,0.09748,-0.12343,42.876,42.321,41.346,49.747,-0.26313,-90.92440,-8.62755
7.743,-0.02254,-0.05099,0.99585,9.76454,0.10609,-0.11900,42.876,42.336,41.346,49.636,-0.26337,-90.92248,-8.62794
7.753,-0.02236,-0.05122,0.99759,9.79562,0.10784,-0.16350,42.876,42.336,41.346,49.747,-0.26353,-90.92338,-8.62832
7.763,-0.02223,-0.05139,0.99782,9.82736,0.10892,-0.18066,42.876,42.336,41.346,49.857,-0.26365,-90.92531,-8.62871
7.773,-0.02223,-0.05153,0.99764,9.73580,0.10596,-0.17501,42.876,42.336,41.346,49.747,-0.26388,-90.92697,-8.62909
7.783,-0.02241,-0.05184,0.99692,9.80489,0.04345,-0.16875,42.876,42.336,41.346,49.415,-0.26812,-90.92815,-8.62948
7.793,-0.02254,-0.05202,0.99679,9.77638,0.09273,-0.14099,42.876,42.336,41.346,49.636,-0.26917,-90.92757,-8.62986
7.803,-0.02259,-0.05202,0.99795,9.75707,0.10999,-0.19022,42.876,42.336,41.346,49.636,-0.26911,-90.93015,-8.63025
7.813,-0.02254,-0.05188,0.99907,9.79821,0.09693,-0.10553,42.876,42.336,41.346,49.415,-0.26991,-90.92730,-8.63064
7.823,-0.02236,-0.05193,0.99844,9.84560,0.07217,-0.09836,42.876,42.336,41.346,49.636,-0.27230,-90.92399,-8.63103
7.833,-0.02214,-0.05175,0.99634,9.84178,0.10776,-0.11666,42.876,42.336,41.346,49.636,-0.27238,-90.92188,-8.63141
7.843,-0.02191,-0.05171,0.99482,9.81982,0.09272,-0.17980,42.872,42.336,41.346,49.636,-0.27339,-90.92378,-8.63179
7.853,-0.02182,-0.05157,0.99312,9.80112,0.13209,-0.16240,42.872,42.336,41.346,49.636,-0.27187,-90.92459,-8.63217
7.863,-0.02187,-0.05162,0.99106,9.80290,0.10949,-0.15423,42.872,42.336,41.346,49.747,-0.27177,-90.92487,-8.63254
7.873,-0.02205,-0.05148,0.98990,9.76495,0.15544,-0.17032,42.872,42.336,41.346,49.747,-0.26872,-90.92620,-8.63293
7.883,-0.02236,-0.05130,0.99048,9.79941,0.09882,-0.12082,42.872,42.336,41.346,49.636,-0.26932,-90.92435,-8.63331
7.893,-0.02241,-0.05113,0.99129,9.77723,0.08211,-0.22134,42.872,42.336,41.353,49.636,-0.27098,-90.92892,-8.63369
7.903,-0.02236,-0.05113,0.99053,9.78145,0.11435,-0.11977,42.872,42.336,41.353,49.747,-0.27056,-90.92698,-8.63408
7.913,-0.02218,-0.05099,0.98927,9.73553,0.09818,-0.08853,42.872,42.336,41.353,49.636,-0.27114,-90.92312,-8.63446
7.923,-0.02196,-0.05086,0.98793,9.78285,0.09782,-0.13134,42.872,42.336,41.353,49.747,-0.27175,-90.92197,-8.63484
7.933,-0.02178,-0.05095,0.98681,9.80166,0.12741,-0.18489,42.872,42.336,41.353,49.636,-0.27047,-90.92422,-8.63522
7.943,-0.02169,-0.05126,0.98757,9.81996,0.11610,-0.18877,42.872,42.327,41.353,49.747,-0.26995,-90.92666,-8.63559
7.953,-0.02174,-0.05130,0.99120,9.80075,0.07899,-0.20192,42.872,42.327,41.353,49.747,-0.27181,-90.92993,-8.63597
7.963,-0.02196,-0.05126,0.99460,9.84727,0.09225,-0.18490,42.872,42.327,41.353,49.747,-0.27287,-90.93204,-8.63635
7.973,-0.02232,-0.05108,0.99643,9.78142,0.10076,-0.16634,42.872,42.327,41.353,49.636,-0.27336,-90.93302,-8.63674
7.983,-0.02254,-0.05117,0.99683,9.84460,0.06291,-0.11038,42.872,42.327,41.353,49.636,-0.27628,-90.93040,-8.63713
7.993,-0.02259,-0.05108,0.99639,9.78001,0.13432,-0.10903,42.872,42.327,41.353,49.636,-0.27459,-90.92776,-8.63751
8.003,-0.02245,-0.05086,0.99580,9.78135,0.13230,-0.14600,42.872,42.327,41.353,49.636,-0.27305,-90.92750,-8.63790
8.013,-0.02223,-0.05068,0.99652,9.77800,0.09383,-0.16189,42.872,42.327,41.353,49.415,-0.27397,-90.92825,-8.63828
8.023,-0.02214,-0.05077,0.99871,9.76603,0.13164,-0.17622,42.872,42.327,41.353,49.415,-0.27249,-90.92991,-8.63866
8.033,-0.02209,-0.05068,1.00180,9.79989,0.12498,-0.21745,42.872,42.327,41.353,49.415,-0.27151,-90.93412,-8.63905
8.043,-0.02196,-0.05068,1.00390,9.76864,0.13364,-0.15933,42.875,42.327,41.353,49.747,-0.26998,-90.93465,-8.63943
8.053,-0.02209,-0.05059,1.00408,9.80235,0.12254,-0.15149,42.875,42.327,41.353,49.857,-0.26921,-90.93463,-8.63982
8.063,-0.02227,-0.05064,1.00305,9.79728,0.13393,-0.17288,42.875,42.327,41.353,49.747,-0.26771,-90.93597,-8.64020
8.073,-0.02250,-0.05081,1.00126,9.78895,0.05970,-0.19062,42.875,42.327,41.353,49.747,-0.27091,-90.93845,-8.64059
8.083,-0.02259,-0.05104,0.99969,9.75035,0.08425,-0.17564,42.875,42.327,41.353,49.747,-0.27248,-90.93998,-8.64098
8.093,-0.02254,-0.05104,1.00019,9.81956,0.12972,-0.12974,42.875,42.327,41.416,49.747,-0.27120,-90.93852,-8.64137
8.103,-0.02241,-0.05117,1.00090,9.76287,0.08306,-0.11526,42.875,42.327,41.416,49.636,-0.27286,-90.93622,-8.64176
8.113,-0.02227,-0.05126,1.00095,9.80898,0.08766,-0.16092,42.875,42.327,41.416,49.415,-0.27424,-90.93678,-8.64215
8.123,-0.02218,-0.05117,1.00005,9.79222,0.11640,-0.11571,42.875,42.327,41.416,49.747,-0.27376,-90.93449,-8.64253
8.133,-0.02223,-0.05108,0.99862,9.78010,0.10208,-0.22586,42.875,42.327,41.416,49.747,-0.27418,-90.93923,-8.64292
8.143,-0.02227,-0.05130,0.99656,9.77841,0.10971,-0.12016,42.875,42.323,41.416,49.636,-0.27408,-90.93721,-8.64330
8.153,-0.02250,-0.05153,0.99513,9.79930,0.08947,-0.16057,42.875,42.323,41.416,49.636,-0.27527,-90.93774,-8.64369
8.163,-0.02272,-0.05162,0.99576,9.76137,0.11677,-0.13033,42.875,42.323,41.416,49.747,-0.27469,-90.93641,-8.64408
8.173,-0.02299,-0.05144,0.99692,9.79079,0.09919,-0.09432,42.875,42.323,41.416,49.636,-0.27526,-90.93278,-8.64447
8.183,-0.02308,-0.05126,0.99746,9.80596,0.09738,-0.11234,42.875,42.323,41.416,49.636,-0.27596,-90.93031,-8.64487
8.193,-0.02299,-0.05122,0.99656,9.79887,0.12478,-0.15795,42.875,42.323,41.416,49.636,-0.27491,-90.93076,-8.64526
8.203,-0.02290,-0.05095,0.99531,9.76831,0.09860,-0.07592,42.875,42.323,41.416,49.747,-0.27549,-90.92604,-8.64565
8.213,-0.02281,-0.05072,0.99410,9.81273,0.11700,-0.12447,42.875,42.323,41.416,49.636,-0.27491,-90.92440,-8.64604
8.223,-0.02276,-0.05086,0.99290,9.77887,0.13057,-0.19505,42.875,42.323,41.416,49.526,-0.27345,-90.92728,-8.64642
8.233,-0.02281,-0.05117,0.99325,9.80542,0.12373,-0.15148,42.875,42.323,41.416,49.415,-0.27245,-90.92735,-8.64681
8.243,-0.02290,-0.05122,0.99451,9.76380,0.07914,-0.14338,42.877,42.323,41.416,49.415,-0.27429,-90.92695,-8.64720
8.253,-0.02308,-0.05126,0.99554,9.73700,0.12108,-0.13407,42.877,42.323,41.416,49.415,-0.27343,-90.92598,-8.64760
8.263,-0.02312,-0.05122,0.99554,9.75346,0.10055,-0.13228,42.877,42.323,41.416,49.747,-0.27389,-90.92489,-8.64799
8.273,-0.02299,-0.05108,0.99384,9.80689,0.14084,-0.08924,42.877,42.323,41.416,49.747,-0.27182,-90.92105,-8.64838
8.283,-0.02272,-0.05068,0.99147,9.73501,0.09114,-0.12870,42.877,42.323,41.416,49.526,-0.27285,-90.91980,-8.64877
8.293,-0.02245,-0.05037,0.98914,9.82413,0.13446,-0.22141,42.877,42.323,41.362,49.636,-0.27116,-90.92435,-8.64915
8.303,-0.02232,-0.05015,0.98914,9.79394,0.11021,-0.13819,42.877,42.323,41.362,49.636,-0.27100,-90.92360,-8.64953
8.313,-0.02209,-0.05010,0.99120,9.74923,0.13197,-0.13408,42.877,42.323,41.362,49.636,-0.26944,-90.92265,-8.64992
8.323,-0.02196,-0.04983,0.99366,9.78922,0.03820,-0.19332,42.877,42.323,41.362,49.747,-0.27392,-90.92542,-8.65030
8.333,-0.02196,-0.04961,0.99540,9.77586,0.14788,-0.17224,42.877,42.323,41.362,49.636,-0.27138,-90.92684,-8.65068
8.343,-0.02214,-0.04952,0.99549,9.74833,0.11426,-0.14605,42.877,42.306,41.362,49.636,-0.27099,-90.92661,-8.65106
8.353,-0.02236,-0.04948,0.99455,9.76651,0.09020,-0.17519,42.877,42.306,41.362,49.636,-0.27214,-90.92821,-8.65144
8.363,-0.02236,-0.04916,0.99366,9.72484,0.11918,-0.08627,42.877,42.306,41.362,49.636,-0.27140,-90.92417,-8.65183
8.373,-0.02214,-0.04908,0.99415,9.78172,0.09170,-0.12086,42.877,42.306,41.362,49.415,-0.27245,-90.92233,-8.65221
8.383,-0.02182,-0.04916,0.99665,9.77362,0.16103,-0.13412,42.877,42.306,41.362,49.636,-0.26910,-90.92136,-8.65259
8.393,-0.02165,-0.04948,0.99858,9.78154,0.11960,-0.15598,42.877,42.306,41.362,49.636,-0.26846,-90.92178,-8.65297
8.403,-0.02165,-0.04970,0.99956,9.80302,0.07031,-0.16608,42.877,42.306,41.362,49.636,-0.27097,-90.92282,-8.65334
8.413,-0.02169,-0.04997,0.99916,9.77078,0.08977,-0.08632,42.877,42.306,41.362,49.526,-0.27219,-90.91882,-8.65372
8.423,-0.02165,-0.05028,0.99782,9.78046,0.11192,-0.15313,42.877,42.306,41.362,49.747,-0.27199,-90.91911,-8.65410
8.433,-0.02160,-0.05068,0.99567,9.85335,0.10228,-0.18935,42.877,42.306,41.362,49.636,-0.27243,-90.92159,-8.65448
8.443,-0.02169,-0.05108,0.99446,9.82367,0.14661,-0.14348,42.880,42.306,41.362,49.636,-0.27003,-90.92120,-8.65485
8.453,-0.02182,-0.05144,0.99513,9.76949,0.07785,-0.20567,42.880,42.306,41.362,49.636,-0.27198,-90.92481,-8.65523
8.463,-0.02174,-0.05171,0.99589,9.72410,0.09383,-0.20555,42.880,42.306,41.362,49.747,-0.27288,-90.92844,-8.65561
8.473,-0.02156,-0.05193,0.99594,9.75919,0.12577,-0.18707,42.880,42.306,41.362,49.636,-0.27175,-90.93082,-8.65599
8.483,-0.02133,-0.05202,0.99576,9.80183,0.11922,-0.11167,42.880,42.306,41.362,49.747,-0.27109,-90.92834,-8.65636
8.493,-0.02129,-0.05193,0.99415,9.75429,0.11527,-0.09456,42.880,42.306,41.328,49.305,-0.27063,-90.92483,-8.65674
8.503,-0.02133,-0.05188,0.99241,9.75269,0.13050,-0.12400,42.880,42.306,41.328,49.415,-0.26918,-90.92324,-8.65711
8.513,-0.02142,-0.05188,0.99039,9.78386,0.08852,-0.16265,42.880,42.306,41.328,49.526,-0.27043,-90.92409,-8.65748
8.523,-0.02156,-0.05188,0.99156,9.78227,0.11850,-0.14311,42.880,42.306,41.328,49.415,-0.26977,-90.92369,-8.65786
8.533,-0.02187,-0.05179,0.99433,9.79691,0.12060,-0.13984,42.880,42.306,41.328,49.747,-0.26902,-90.92307,-8.65824
8.543,-0.02214,-0.05175,0.99683,9.80542,0.06989,-0.18416,42.880,42.347,41.328,49.415,-0.27152,-90.92527,-8.65862
8.553,-0.02227,-0.05179,0.99849,9.83340,0.11746,-0.17143,42.880,42.347,41.328,49.636,-0.27102,-90.92659,-8.65900
8.563,-0.02218,-0.05175,0.99876,9.75412,0.08209,-0.14505,42.880,42.347,41.328,49.747,-0.27272,-90.92632,-8.65939
8.573,-0.02205,-0.05162,0.99804,9.78594,0.10242,-0.14381,42.880,42.347,41.328,49.747,-0.27312,-90.92593,-8.65977
8.583,-0.02200,-0.05130,0.99768,9.81408,0.12553,-0.10119,42.880,42.347,41.328,49.636,-0.27207,-90.92284,-8.66015
8.593,-0.02214,-0.05099,0.99853,9.80367,0.12091,-0.18525,42.880,42.347,41.328,49.636,-0.27132,-90.92509,-8.66053
8.603,-0.02214,-0.05081,1.00019,9.78524,0.13460,-0.16047,42.880,42.347,41.328,49.747,-0.26972,-90.92577,-8.66092
8.613,-0.02205,-0.05081,1.00014,9.75040,0.07091,-0.14903,42.880,42.347,41.328,49.747,-0.27216,-90.92574,-8.66130
8.623,-0.02205,-0.05113,0.99907,9.76960,0.13723,-0.12316,42.880,42.347,41.328,49.747,-0.27035,-90.92406,-8.66168
8.633,-0.02245,-0.05139,0.99804,9.76717,0.07508,-0.10716,42.880,42.347,41.328,49.636,-0.27250,-90.92139,-8.66207
8.643,-0.02272,-0.05153,0.99750,9.77817,0.12328,-0.19301,42.879,42.347,41.328,49.636,-0.27157,-90.92419,-8.66245
8.653,-0.02281,-0.05153,0.99607,9.78509,0.11692,-0.16560,42.879,42.347,41.328,49.747,-0.27104,-90.92521,-8.66284
8.663,-0.02272,-0.05144,0.99607,9.74643,0.08235,-0.15634,42.879,42.347,41.328,49.636,-0.27270,-90.92567,-8.66323
8.673,-0.02254,-0.05144,0.99795,9.81309,0.09505,-0.14808,42.879,42.347,41.328,49.526,-0.27358,-90.92553,-8.66362
8.683,-0.02245,-0.05130,0.99885,9.74220,0.11340,-0.15411,42.879,42.347,41.328,49.636,-0.27325,-90.92584,-8.66400
8.693,-0.02263,-0.05099,0.99808,9.78281,0.11991,-0.18332,42.879,42.347,41.356,49.636,-0.27254,-90.92796,-8.66439
8.703,-0.02281,-0.05068,0.99634,9.80132,0.08942,-0.18348,42.879,42.347,41.356,49.636,-0.27376,-90.93005,-8.66478
8.713,-0.02290,-0.05081,0.99464,9.83009,0.12550,-0.04925,42.879,42.347,41.356,49.857,-0.27268,-90.92364,-8.66517
8.723,-0.02290,-0.05117,0.99402,9.76397,0.14000,-0.07656,42.879,42.347,41.356,49.636,-0.27063,-90.91903,-8.66556
8.733,-0.02299,-0.05126,0.99442,9.74502,0.14139,-0.16953,42.879,42.347,41.356,49.747,-0.26851,-90.92039,-8.66595
8.743,-0.02308,-0.05108,0.99630,9.77537,0.14378,-0.13403,42.879,42.321,41.356,49.636,-0.26630,-90.91946,-8.66634
8.753,-0.02294,-0.05059,0.99862,9.74997,0.10280,-0.13593,42.879,42.321,41.356,49.747,-0.26673,-90.91868,-8.66673
8.763,-0.02250,-0.05023,0.99862,9.78213,0.07846,-0.18230,42.879,42.321,41.356,49.968,-0.26872,-90.92081,-8.66711
8.773,-0.02227,-0.04992,0.99741,9.78771,0.10530,-0.20694,42.879,42.321,41.356,49.636,-0.26898,-90.92447,-8.66749
8.783,-0.02209,-0.04974,0.99571,9.77198,0.12055,-0.18337,42.879,42.321,41.356,49.636,-0.26824,-90.92661,-8.66788
8.793,-0.02178,-0.04970,0.99379,9.78777,0.17043,-0.12607,42.879,42.321,41.356,49.747,-0.26433,-90.92509,-8.66826
#2025/09/05 10:51:33
