#2025/08/25 18:31:47
time,wx, wy, wz, ax, ay, az, Tx, Ty, Tz, TAcc
0.003,-103.76862,-70.10573,-66.10817,0.27014,0.49680,9.32767,-265.839,-265.956,-265.723,51.846
0.013,-103.76963,-70.10608,-66.10818,0.28749,0.49365,9.37234,-265.839,-265.956,-265.723,51.846
0.023,-103.77067,-70.10645,-66.10819,0.24853,0.52400,9.38219,-265.839,-265.956,-265.723,51.846
0.033,-103.77175,-70.10683,-66.10822,0.24501,0.45521,9.36439,-265.839,-265.956,-265.723,51.625
0.043,-103.77290,-70.10722,-66.10822,0.27631,0.49161,9.37072,-265.839,-265.956,-265.723,51.625
0.053,-103.77412,-70.10757,-66.10825,0.21868,0.49832,9.36817,-265.839,-265.956,-265.723,51.846
0.063,-103.77547,-70.10792,-66.10828,0.26013,0.48836,9.36267,-265.839,-265.956,-265.723,51.736
0.073,-103.77687,-70.10823,-66.10831,0.24833,0.47398,9.34220,-265.839,-265.956,-265.723,51.736
0.083,-103.77838,-70.10850,-66.10835,0.23399,0.47091,9.38923,-265.839,-265.956,-265.723,51.515
0.093,-103.77995,-70.10873,-66.10838,0.29284,0.46109,9.37531,-265.841,-265.956,-265.723,51.846
0.103,-103.78152,-70.10898,-66.10841,0.25317,0.48152,9.40851,-265.841,-265.956,-265.723,51.625
0.113,-103.78312,-70.10925,-66.10846,0.23351,0.44664,9.36159,-265.841,-265.956,-265.723,51.736
0.123,-103.78474,-70.10955,-66.10849,0.26616,0.46537,9.35634,-265.841,-265.956,-265.723,51.515
0.133,-103.78636,-70.10985,-66.10854,0.24007,0.48696,9.34695,-265.841,-265.956,-265.723,51.846
0.143,-103.78804,-70.11012,-66.10859,0.25192,0.50426,9.31755,-265.841,-265.956,-265.722,51.846
0.153,-103.78980,-70.11035,-66.10866,0.28239,0.50240,9.36345,-265.841,-265.956,-265.722,51.846
0.163,-103.79163,-70.11059,-66.10872,0.29587,0.47741,9.30408,-265.841,-265.956,-265.722,51.515
0.173,-103.79350,-70.11082,-66.10880,0.26485,0.51795,9.36094,-265.841,-265.956,-265.722,51.625
0.183,-103.79537,-70.11105,-66.10886,0.24852,0.45743,9.32539,-265.841,-265.956,-265.722,51.625
0.193,-103.79724,-70.11129,-66.10896,0.20723,0.48514,9.36057,-265.841,-265.955,-265.722,51.625
0.203,-103.79913,-70.11151,-66.10905,0.20383,0.44283,9.34225,-265.841,-265.955,-265.722,51.625
0.213,-103.80099,-70.11173,-66.10915,0.29157,0.47633,9.34428,-265.841,-265.955,-265.722,51.736
0.223,-103.80289,-70.11196,-66.10927,0.28001,0.50700,9.37066,-265.841,-265.955,-265.722,51.625
0.233,-103.80478,-70.11216,-66.10939,0.25094,0.48058,9.35906,-265.841,-265.955,-265.722,51.736
0.243,-103.80663,-70.11232,-66.10950,0.29091,0.50245,9.35261,-265.841,-265.955,-265.722,51.846
0.253,-103.80848,-70.11242,-66.10963,0.27345,0.50467,9.38272,-265.841,-265.955,-265.722,51.625
0.263,-103.81029,-70.11250,-66.10976,0.26294,0.48404,9.32128,-265.841,-265.955,-265.722,51.515
0.273,-103.81203,-70.11256,-66.10990,0.27790,0.48814,9.36029,-265.841,-265.955,-265.722,51.625
0.283,-103.81373,-70.11262,-66.11005,0.26041,0.53257,9.38780,-265.841,-265.955,-265.722,51.515
0.293,-103.81535,-70.11267,-66.11018,0.24650,0.46248,9.35270,-265.841,-265.955,-265.722,51.515
0.303,-103.81689,-70.11271,-66.11034,0.26450,0.46935,9.40738,-265.840,-265.955,-265.722,51.846
0.313,-103.81840,-70.11274,-66.11049,0.25464,0.49636,9.36302,-265.840,-265.955,-265.722,51.846
0.323,-103.81984,-70.11277,-66.11063,0.24578,0.49020,9.38555,-265.840,-265.955,-265.722,51.736
0.333,-103.82125,-70.11281,-66.11078,0.24837,0.46299,9.38808,-265.840,-265.955,-265.722,51.736
0.343,-103.82260,-70.11283,-66.11094,0.23238,0.47779,9.38557,-265.840,-265.955,-265.722,51.625
0.353,-103.82388,-70.11285,-66.11113,0.27874,0.52189,9.34889,-265.840,-265.955,-265.723,51.736
0.363,-103.82507,-70.11286,-66.11133,0.21715,0.45915,9.36432,-265.840,-265.955,-265.723,51.625
0.373,-103.82619,-70.11288,-66.11155,0.25268,0.50052,9.34853,-265.840,-265.955,-265.723,51.736
0.383,-103.82726,-70.11288,-66.11179,0.25574,0.46262,9.37081,-265.840,-265.955,-265.723,51.625
0.393,-103.82826,-70.11290,-66.11205,0.22623,0.47955,9.35500,-265.840,-265.955,-265.723,51.736
0.403,-103.82925,-70.11290,-66.11233,0.24709,0.44478,9.33710,-265.840,-265.956,-265.723,51.736
0.413,-103.83019,-70.11290,-66.11264,0.27024,0.52067,9.35370,-265.840,-265.956,-265.723,51.515
0.423,-103.83113,-70.11290,-66.11298,0.24797,0.43705,9.31502,-265.840,-265.956,-265.723,51.846
0.433,-103.83205,-70.11291,-66.11333,0.31663,0.48044,9.35034,-265.840,-265.956,-265.723,51.736
0.443,-103.83292,-70.11292,-66.11373,0.27223,0.47432,9.37602,-265.840,-265.956,-265.723,51.846
0.453,-103.83376,-70.11292,-66.11417,0.24130,0.44434,9.33588,-265.840,-265.956,-265.723,51.736
0.463,-103.83456,-70.11292,-66.11466,0.28784,0.45647,9.38738,-265.840,-265.956,-265.723,51.736
0.473,-103.83538,-70.11293,-66.11516,0.24703,0.48703,9.34817,-265.840,-265.956,-265.723,51.515
0.483,-103.83618,-70.11295,-66.11568,0.26821,0.49150,9.35985,-265.840,-265.956,-265.723,51.515
0.493,-103.83704,-70.11295,-66.11623,0.33378,0.49876,9.38728,-265.840,-265.956,-265.723,51.625
0.503,-103.83792,-70.11295,-66.11682,0.25586,0.45186,9.36402,-265.841,-265.956,-265.723,51.736
0.513,-103.83882,-70.11295,-66.11744,0.23363,0.43399,9.36687,-265.841,-265.956,-265.723,51.846
0.523,-103.83974,-70.11296,-66.11806,0.29656,0.47683,9.36399,-265.841,-265.956,-265.723,51.736
0.533,-103.84068,-70.11297,-66.11872,0.23806,0.48898,9.38674,-265.841,-265.956,-265.723,51.736
0.543,-103.84163,-70.11297,-66.11940,0.26046,0.49524,9.35339,-265.841,-265.956,-265.723,51.625
0.553,-103.84259,-70.11296,-66.12012,0.22417,0.48730,9.38471,-265.841,-265.956,-265.724,51.515
0.563,-103.84358,-70.11296,-66.12086,0.25860,0.48379,9.37876,-265.841,-265.956,-265.724,51.515
0.573,-103.84468,-70.11295,-66.12163,0.26251,0.51986,9.36334,-265.841,-265.956,-265.724,51.625
0.583,-103.84582,-70.11296,-66.12246,0.27815,0.50498,9.34132,-265.841,-265.956,-265.724,51.846
0.593,-103.84695,-70.11295,-66.12335,0.23666,0.47552,9.38439,-265.841,-265.956,-265.724,51.736
0.603,-103.84805,-70.11295,-66.12431,0.25993,0.47257,9.34464,-265.841,-265.954,-265.724,51.736
0.613,-103.84920,-70.11295,-66.12537,0.23542,0.44518,9.38009,-265.841,-265.954,-265.724,51.736
0.623,-103.85037,-70.11295,-66.12650,0.24837,0.46449,9.37722,-265.841,-265.954,-265.724,51.625
0.633,-103.85159,-70.11295,-66.12771,0.24540,0.49507,9.34532,-265.841,-265.954,-265.724,51.625
0.643,-103.85284,-70.11298,-66.12898,0.30767,0.48200,9.38851,-265.841,-265.954,-265.724,51.846
0.653,-103.85415,-70.11298,-66.13033,0.23999,0.49541,9.34893,-265.841,-265.954,-265.724,51.515
0.663,-103.85549,-70.11297,-66.13172,0.22273,0.44834,9.32498,-265.841,-265.954,-265.724,51.625
0.673,-103.85688,-70.11298,-66.13316,0.29147,0.48368,9.36194,-265.841,-265.954,-265.724,51.846
0.683,-103.85830,-70.11299,-66.13467,0.23636,0.47159,9.35465,-265.841,-265.954,-265.724,51.625
0.693,-103.85972,-70.11300,-66.13623,0.28296,0.48172,9.37801,-265.841,-265.954,-265.724,51.736
0.703,-103.86110,-70.11299,-66.13779,0.26504,0.49802,9.36826,-265.840,-265.954,-265.724,51.846
0.713,-103.86246,-70.11301,-66.13934,0.27871,0.45085,9.33713,-265.840,-265.954,-265.724,51.846
0.723,-103.86387,-70.11301,-66.14085,0.21749,0.46864,9.33010,-265.840,-265.954,-265.724,51.736
0.733,-103.86526,-70.11302,-66.14231,0.27681,0.48011,9.37319,-265.840,-265.954,-265.724,51.736
0.743,-103.86662,-70.11302,-66.14370,0.22560,0.49920,9.38064,-265.840,-265.954,-265.724,51.736
0.753,-103.86797,-70.11302,-66.14499,0.24741,0.48780,9.34656,-265.840,-265.954,-265.726,51.736
0.763,-103.86929,-70.11302,-66.14617,0.28021,0.45019,9.36809,-265.840,-265.954,-265.726,51.736
0.773,-103.87059,-70.11301,-66.14725,0.26388,0.49199,9.40768,-265.840,-265.954,-265.726,51.736
0.783,-103.87185,-70.11301,-66.14828,0.26359,0.52604,9.37457,-265.840,-265.954,-265.726,51.515
0.793,-103.87305,-70.11301,-66.14925,0.24551,0.48131,9.36387,-265.840,-265.954,-265.726,51.736
0.803,-103.87421,-70.11301,-66.15012,0.25658,0.49636,9.35659,-265.840,-265.957,-265.726,51.736
0.813,-103.87535,-70.11301,-66.15094,0.27164,0.45287,9.39339,-265.840,-265.957,-265.726,51.846
0.823,-103.87645,-70.11300,-66.15171,0.29759,0.48574,9.38888,-265.840,-265.957,-265.726,51.736
0.833,-103.87755,-70.11301,-66.15240,0.19462,0.47008,9.37267,-265.840,-265.957,-265.726,51.736
0.843,-103.87863,-70.11302,-66.15308,0.26110,0.46955,9.35873,-265.840,-265.957,-265.726,51.625
0.853,-103.87976,-70.11302,-66.15368,0.25139,0.50981,9.37623,-265.840,-265.957,-265.726,51.846
0.863,-103.88095,-70.11302,-66.15423,0.28147,0.51020,9.40804,-265.840,-265.957,-265.726,51.736
0.873,-103.88216,-70.11302,-66.15477,0.27299,0.51384,9.37062,-265.840,-265.957,-265.726,51.846
0.883,-103.88333,-70.11303,-66.15531,0.23107,0.49501,9.37303,-265.840,-265.957,-265.726,51.736
0.893,-103.88448,-70.11304,-66.15590,0.25279,0.48377,9.39282,-265.840,-265.957,-265.726,51.515
0.903,-103.88560,-70.11304,-66.15649,0.26480,0.48532,9.35947,-265.840,-265.957,-265.726,51.625
0.913,-103.88667,-70.11304,-66.15712,0.23534,0.45248,9.38368,-265.840,-265.957,-265.726,51.736
0.923,-103.88778,-70.11305,-66.15774,0.26824,0.48655,9.37395,-265.840,-265.957,-265.726,51.736
0.933,-103.88889,-70.11305,-66.15833,0.23644,0.49212,9.41688,-265.840,-265.957,-265.726,51.736
0.943,-103.88995,-70.11307,-66.15890,0.28664,0.49792,9.39042,-265.840,-265.957,-265.726,51.846
0.953,-103.89103,-70.11306,-66.15944,0.20879,0.48965,9.32397,-265.840,-265.957,-265.724,51.515
0.963,-103.89213,-70.11306,-66.15993,0.26899,0.48584,9.39043,-265.840,-265.957,-265.724,51.957
0.973,-103.89322,-70.11305,-66.16041,0.24202,0.48282,9.36627,-265.840,-265.957,-265.724,51.515
0.983,-103.89428,-70.11305,-66.16085,0.23680,0.46169,9.37962,-265.840,-265.957,-265.724,51.736
0.993,-103.89529,-70.11304,-66.16131,0.16866,0.43986,9.36551,-265.840,-265.957,-265.724,51.846
1.003,-103.89630,-70.11304,-66.16175,0.21288,0.53289,9.39374,-265.840,-265.956,-265.724,51.736
1.013,-103.89735,-70.11304,-66.16218,0.23741,0.51770,9.36893,-265.840,-265.956,-265.724,51.736
1.023,-103.89847,-70.11304,-66.16254,0.28967,0.50635,9.37631,-265.840,-265.956,-265.724,51.625
1.033,-103.89960,-70.11304,-66.16286,0.23744,0.51539,9.36532,-265.840,-265.956,-265.724,51.736
1.043,-103.90083,-70.11303,-66.16314,0.28247,0.53234,9.36292,-265.840,-265.956,-265.724,51.736
1.053,-103.90205,-70.11302,-66.16338,0.26957,0.50842,9.36702,-265.840,-265.956,-265.724,51.736
1.063,-103.90326,-70.11302,-66.16358,0.27884,0.50890,9.36824,-265.840,-265.956,-265.724,51.736
1.073,-103.90454,-70.11301,-66.16379,0.25688,0.50443,9.35857,-265.840,-265.956,-265.724,51.846
1.083,-103.90589,-70.11301,-66.16399,0.24537,0.46014,9.34587,-265.840,-265.956,-265.724,51.736
1.093,-103.90724,-70.11301,-66.16418,0.27924,0.46788,9.38128,-265.840,-265.956,-265.724,51.846
1.103,-103.90862,-70.11300,-66.16439,0.23871,0.50164,9.38347,-265.839,-265.956,-265.724,51.515
1.113,-103.91003,-70.11299,-66.16461,0.21814,0.47566,9.36425,-265.839,-265.956,-265.724,51.625
1.123,-103.91140,-70.11298,-66.16481,0.25308,0.49148,9.40284,-265.839,-265.956,-265.724,51.846
1.133,-103.91277,-70.11298,-66.16499,0.21918,0.51766,9.41392,-265.839,-265.956,-265.724,51.736
1.143,-103.91405,-70.11298,-66.16518,0.25222,0.46492,9.38165,-265.839,-265.956,-265.724,51.736
1.153,-103.91531,-70.11299,-66.16538,0.25020,0.50872,9.40115,-265.839,-265.956,-265.726,51.736
1.163,-103.91657,-70.11301,-66.16559,0.23273,0.48200,9.38113,-265.839,-265.956,-265.726,51.846
1.173,-103.91783,-70.11301,-66.16580,0.24529,0.42605,9.36934,-265.839,-265.956,-265.726,51.846
1.183,-103.91910,-70.11300,-66.16603,0.27124,0.49278,9.39081,-265.839,-265.956,-265.726,51.736
1.193,-103.92042,-70.11301,-66.16625,0.24943,0.47673,9.35867,-265.839,-265.956,-265.726,51.625
1.203,-103.92173,-70.11301,-66.16647,0.23478,0.51339,9.34643,-265.839,-265.956,-265.726,51.625
1.213,-103.92304,-70.11301,-66.16670,0.24463,0.52817,9.37935,-265.839,-265.956,-265.726,51.846
1.223,-103.92438,-70.11301,-66.16692,0.22772,0.51052,9.43729,-265.839,-265.956,-265.726,51.515
1.233,-103.92574,-70.11302,-66.16713,0.26276,0.49606,9.36103,-265.839,-265.956,-265.726,51.846
1.243,-103.92712,-70.11302,-66.16733,0.23821,0.47740,9.36549,-265.839,-265.956,-265.726,51.736
1.253,-103.92858,-70.11302,-66.16753,0.24999,0.45684,9.37967,-265.839,-265.956,-265.726,51.736
1.263,-103.93012,-70.11301,-66.16773,0.29431,0.47329,9.34551,-265.839,-265.956,-265.726,51.846
1.273,-103.93177,-70.11301,-66.16791,0.24168,0.43343,9.40870,-265.839,-265.956,-265.726,51.846
1.283,-103.93346,-70.11301,-66.16805,0.21130,0.50774,9.33153,-265.839,-265.956,-265.726,51.515
1.293,-103.93518,-70.11300,-66.16819,0.29964,0.50960,9.40285,-265.839,-265.956,-265.726,51.736
1.303,-103.93691,-70.11300,-66.16830,0.20048,0.46587,9.35622,-265.841,-265.956,-265.726,51.625
1.313,-103.93868,-70.11299,-66.16841,0.26523,0.47922,9.36955,-265.841,-265.956,-265.726,51.846
1.323,-103.94044,-70.11300,-66.16852,0.23784,0.47172,9.39245,-265.841,-265.956,-265.726,51.736
1.333,-103.94216,-70.11300,-66.16861,0.29020,0.53015,9.37702,-265.841,-265.956,-265.726,51.846
1.343,-103.94385,-70.11300,-66.16869,0.24487,0.49948,9.40922,-265.841,-265.956,-265.726,51.846
1.353,-103.94550,-70.11299,-66.16876,0.23827,0.50550,9.39310,-265.841,-265.956,-265.723,51.846
1.363,-103.94711,-70.11300,-66.16883,0.29294,0.49062,9.36754,-265.841,-265.956,-265.723,51.736
1.373,-103.94866,-70.11301,-66.16888,0.24894,0.52358,9.36933,-265.841,-265.956,-265.723,51.846
1.383,-103.95018,-70.11302,-66.16892,0.25289,0.47680,9.37356,-265.841,-265.956,-265.723,51.736
1.393,-103.95168,-70.11303,-66.16895,0.25020,0.51964,9.33236,-265.841,-265.956,-265.723,51.736
1.403,-103.95314,-70.11304,-66.16898,0.22803,0.51706,9.43967,-265.841,-265.956,-265.723,51.736
1.413,-103.95453,-70.11304,-66.16902,0.26061,0.51526,9.37300,-265.841,-265.956,-265.723,51.736
1.423,-103.95586,-70.11307,-66.16906,0.25106,0.46868,9.35871,-265.841,-265.956,-265.723,51.957
1.433,-103.95717,-70.11308,-66.16910,0.25212,0.47340,9.39287,-265.841,-265.956,-265.723,51.736
1.443,-103.95842,-70.11310,-66.16913,0.28763,0.47833,9.38125,-265.841,-265.956,-265.723,51.736
1.453,-103.95966,-70.11313,-66.16915,0.23571,0.45517,9.38206,-265.841,-265.956,-265.723,51.625
1.463,-103.96095,-70.11316,-66.16918,0.24222,0.42787,9.34480,-265.841,-265.956,-265.723,51.846
1.473,-103.96223,-70.11320,-66.16922,0.26523,0.48299,9.34782,-265.841,-265.956,-265.723,51.846
1.483,-103.96356,-70.11325,-66.16925,0.32160,0.47985,9.39257,-265.841,-265.956,-265.723,51.846
1.493,-103.96496,-70.11330,-66.16929,0.32454,0.45609,9.39429,-265.841,-265.956,-265.723,51.846
1.503,-103.96639,-70.11335,-66.16932,0.25780,0.48270,9.40450,-265.842,-265.956,-265.723,51.515
1.513,-103.96788,-70.11340,-66.16935,0.25578,0.49414,9.38635,-265.842,-265.956,-265.723,51.846
1.523,-103.96938,-70.11346,-66.16940,0.23698,0.48657,9.35378,-265.842,-265.956,-265.723,51.736
1.533,-103.97092,-70.11353,-66.16945,0.25137,0.50420,9.42610,-265.842,-265.956,-265.723,51.846
1.543,-103.97253,-70.11359,-66.16949,0.25954,0.46918,9.36878,-265.842,-265.956,-265.723,51.736
1.553,-103.97417,-70.11365,-66.16953,0.26041,0.50324,9.33124,-265.842,-265.956,-265.724,51.736
1.563,-103.97585,-70.11371,-66.16957,0.22203,0.47264,9.36708,-265.842,-265.956,-265.724,51.625
1.573,-103.97755,-70.11377,-66.16962,0.28045,0.49826,9.39844,-265.842,-265.956,-265.724,51.846
1.583,-103.97929,-70.11385,-66.16965,0.24684,0.50132,9.37666,-265.842,-265.956,-265.724,51.736
1.593,-103.98106,-70.11392,-66.16969,0.27863,0.48824,9.39044,-265.842,-265.956,-265.724,51.736
1.603,-103.98286,-70.11400,-66.16972,0.24802,0.50468,9.34127,-265.842,-265.957,-265.724,51.846
1.613,-103.98466,-70.11407,-66.16976,0.26688,0.50499,9.38271,-265.842,-265.957,-265.724,51.846
1.623,-103.98645,-70.11415,-66.16980,0.26625,0.49078,9.38237,-265.842,-265.957,-265.724,51.957
1.633,-103.98821,-70.11422,-66.16985,0.26467,0.49686,9.36786,-265.842,-265.957,-265.724,51.846
1.643,-103.98992,-70.11430,-66.16991,0.23497,0.48745,9.39840,-265.842,-265.957,-265.724,51.736
1.653,-103.99158,-70.11436,-66.16999,0.25138,0.47446,9.36351,-265.842,-265.957,-265.724,51.846
1.663,-103.99322,-70.11441,-66.17005,0.23564,0.49706,9.40238,-265.842,-265.957,-265.724,51.736
1.673,-103.99480,-70.11446,-66.17012,0.28013,0.53312,9.37698,-265.842,-265.957,-265.724,51.846
1.683,-103.99634,-70.11452,-66.17020,0.22908,0.49734,9.39071,-265.842,-265.957,-265.724,51.736
1.693,-103.99788,-70.11455,-66.17030,0.27532,0.51272,9.37264,-265.842,-265.957,-265.724,51.736
1.703,-103.99941,-70.11458,-66.17042,0.22558,0.50377,9.36856,-265.842,-265.957,-265.724,51.736
1.713,-104.00092,-70.11462,-66.17057,0.27264,0.51152,9.36420,-265.840,-265.957,-265.724,51.625
1.723,-104.00237,-70.11462,-66.17075,0.25326,0.51370,9.38988,-265.840,-265.957,-265.724,51.846
1.733,-104.00378,-70.11462,-66.17092,0.27778,0.46167,9.36442,-265.840,-265.957,-265.724,51.515
1.743,-104.00513,-70.11462,-66.17112,0.22447,0.49913,9.36175,-265.840,-265.957,-265.724,51.736
1.753,-104.00643,-70.11462,-66.17132,0.25782,0.52556,9.36129,-265.840,-265.957,-265.724,51.625
1.763,-104.00772,-70.11463,-66.17153,0.24983,0.47069,9.39287,-265.840,-265.957,-265.724,51.515
1.773,-104.00900,-70.11463,-66.17174,0.24300,0.49445,9.40160,-265.840,-265.957,-265.724,51.846
1.783,-104.01027,-70.11464,-66.17197,0.25358,0.47960,9.40611,-265.840,-265.957,-265.724,51.736
1.793,-104.01150,-70.11465,-66.17220,0.24521,0.51652,9.33236,-265.840,-265.957,-265.724,51.846
1.803,-104.01270,-70.11465,-66.17243,0.23030,0.49724,9.35212,-265.840,-265.957,-265.724,51.736
1.813,-104.01388,-70.11465,-66.17267,0.22359,0.50535,9.38946,-265.840,-265.956,-265.724,51.736
1.823,-104.01502,-70.11465,-66.17289,0.21923,0.44383,9.36760,-265.840,-265.956,-265.724,51.515
1.833,-104.01607,-70.11466,-66.17309,0.26315,0.49152,9.38276,-265.840,-265.956,-265.724,51.736
1.843,-104.01709,-70.11466,-66.17326,0.23779,0.47408,9.41173,-265.840,-265.956,-265.724,51.736
1.853,-104.01809,-70.11467,-66.17342,0.28093,0.48981,9.39245,-265.840,-265.956,-265.724,51.846
1.863,-104.01907,-70.11467,-66.17357,0.26690,0.46997,9.35070,-265.840,-265.956,-265.724,51.846
1.873,-104.02001,-70.11466,-66.17371,0.27971,0.42219,9.37465,-265.840,-265.956,-265.724,51.736
1.883,-104.02094,-70.11466,-66.17384,0.25285,0.47763,9.39124,-265.840,-265.956,-265.724,51.736
1.893,-104.02187,-70.11466,-66.17394,0.22280,0.47454,9.35944,-265.840,-265.956,-265.724,51.515
1.903,-104.02274,-70.11465,-66.17402,0.24553,0.47451,9.39968,-265.840,-265.956,-265.724,51.846
1.913,-104.02361,-70.11465,-66.17410,0.26759,0.50926,9.39757,-265.842,-265.956,-265.724,51.846
1.923,-104.02447,-70.11465,-66.17415,0.26823,0.48545,9.38883,-265.842,-265.956,-265.724,51.736
1.933,-104.02530,-70.11465,-66.17420,0.28642,0.48632,9.36514,-265.842,-265.956,-265.724,51.736
1.943,-104.02614,-70.11464,-66.17424,0.25291,0.51514,9.35771,-265.842,-265.956,-265.724,51.846
1.953,-104.02695,-70.11464,-66.17428,0.24462,0.52593,9.40107,-265.842,-265.956,-265.724,51.736
1.963,-104.02782,-70.11464,-66.17431,0.23398,0.47206,9.38842,-265.842,-265.956,-265.724,51.515
1.973,-104.02871,-70.11465,-66.17435,0.27998,0.50481,9.40847,-265.842,-265.956,-265.724,51.846
1.983,-104.02964,-70.11465,-66.17438,0.24683,0.49869,9.39677,-265.842,-265.956,-265.724,51.736
1.993,-104.03058,-70.11465,-66.17440,0.25811,0.46028,9.34992,-265.842,-265.956,-265.724,51.625
2.003,-104.03159,-70.11465,-66.17443,0.27594,0.44945,9.38859,-265.842,-265.956,-265.724,51.846
2.013,-104.03262,-70.11466,-66.17445,0.26392,0.45467,9.37729,-265.842,-265.955,-265.724,51.625
2.023,-104.03368,-70.11466,-66.17448,0.23628,0.47965,9.35220,-265.842,-265.955,-265.724,51.625
2.033,-104.03476,-70.11467,-66.17451,0.21507,0.51058,9.37213,-265.842,-265.955,-265.724,51.625
2.043,-104.03589,-70.11467,-66.17455,0.24325,0.50865,9.40195,-265.842,-265.955,-265.724,51.736
2.053,-104.03705,-70.11467,-66.17459,0.25901,0.47923,9.39487,-265.842,-265.955,-265.724,51.736
2.063,-104.03827,-70.11468,-66.17464,0.30116,0.52022,9.35457,-265.842,-265.955,-265.724,51.515
2.073,-104.03954,-70.11468,-66.17468,0.24620,0.51949,9.42161,-265.842,-265.955,-265.724,51.736
2.083,-104.04090,-70.11468,-66.17474,0.25201,0.48527,9.38437,-265.842,-265.955,-265.724,51.736
2.093,-104.04230,-70.11468,-66.17480,0.29277,0.50524,9.37954,-265.842,-265.955,-265.724,51.736
2.103,-104.04378,-70.11468,-66.17484,0.27225,0.51000,9.37305,-265.842,-265.955,-265.724,51.846
2.113,-104.04532,-70.11468,-66.17490,0.21874,0.49067,9.37464,-265.841,-265.955,-265.724,51.625
2.123,-104.04691,-70.11469,-66.17494,0.24371,0.46711,9.37197,-265.841,-265.955,-265.724,51.846
2.133,-104.04852,-70.11469,-66.17499,0.29632,0.45659,9.40066,-265.841,-265.955,-265.724,51.736
2.143,-104.05016,-70.11471,-66.17504,0.22728,0.49218,9.33967,-265.841,-265.955,-265.724,51.625
2.153,-104.05187,-70.11473,-66.17509,0.29786,0.42164,9.38554,-265.841,-265.955,-265.724,51.846
2.163,-104.05363,-70.11478,-66.17512,0.28104,0.48170,9.37640,-265.841,-265.955,-265.724,51.625
2.173,-104.05545,-70.11483,-66.17516,0.23902,0.51308,9.35649,-265.841,-265.955,-265.724,51.736
2.183,-104.05734,-70.11489,-66.17518,0.25772,0.45464,9.39055,-265.841,-265.955,-265.724,51.736
2.193,-104.05925,-70.11497,-66.17520,0.23818,0.44059,9.37650,-265.841,-265.955,-265.724,51.736
2.203,-104.06117,-70.11506,-66.17521,0.24879,0.53214,9.41030,-265.841,-265.955,-265.724,51.736
2.213,-104.06311,-70.11514,-66.17522,0.24727,0.49633,9.37628,-265.841,-265.958,-265.724,51.515
2.223,-104.06504,-70.11523,-66.17522,0.24685,0.50468,9.34649,-265.841,-265.958,-265.724,51.846
2.233,-104.06697,-70.11533,-66.17524,0.22917,0.49304,9.36178,-265.841,-265.958,-265.724,51.625
2.243,-104.06889,-70.11543,-66.17525,0.26133,0.52101,9.36816,-265.841,-265.958,-265.724,51.846
2.253,-104.07083,-70.11553,-66.17526,0.27164,0.53489,9.35364,-265.841,-265.958,-265.724,51.846
2.263,-104.07276,-70.11565,-66.17526,0.23629,0.46908,9.41256,-265.841,-265.958,-265.724,51.515
2.273,-104.07469,-70.11580,-66.17526,0.27026,0.43976,9.37576,-265.841,-265.958,-265.724,51.515
2.283,-104.07658,-70.11594,-66.17527,0.23468,0.48085,9.37511,-265.841,-265.958,-265.724,51.736
2.293,-104.07846,-70.11607,-66.17528,0.22426,0.47697,9.39722,-265.841,-265.958,-265.724,51.846
2.303,-104.08038,-70.11618,-66.17528,0.25511,0.48340,9.39122,-265.841,-265.958,-265.724,51.846
2.313,-104.08225,-70.11629,-66.17528,0.21063,0.49173,9.37060,-265.842,-265.958,-265.724,51.736
2.323,-104.08413,-70.11639,-66.17530,0.24365,0.50861,9.38828,-265.842,-265.958,-265.724,51.515
2.333,-104.08600,-70.11649,-66.17530,0.25591,0.52173,9.36975,-265.842,-265.958,-265.724,51.846
2.343,-104.08784,-70.11656,-66.17532,0.28477,0.46055,9.35077,-265.842,-265.958,-265.724,51.736
2.353,-104.08968,-70.11665,-66.17532,0.20478,0.53277,9.38167,-265.842,-265.958,-265.724,51.515
2.363,-104.09148,-70.11674,-66.17533,0.26877,0.47913,9.32895,-265.842,-265.958,-265.725,51.846
2.373,-104.09324,-70.11681,-66.17534,0.30649,0.52380,9.38150,-265.842,-265.958,-265.725,51.736
2.383,-104.09497,-70.11687,-66.17535,0.22192,0.51987,9.37613,-265.842,-265.958,-265.725,51.846
2.393,-104.09669,-70.11693,-66.17535,0.23563,0.49895,9.39313,-265.842,-265.958,-265.725,51.736
2.403,-104.09841,-70.11695,-66.17535,0.25365,0.51445,9.38103,-265.842,-265.958,-265.725,51.846
2.413,-104.10015,-70.11698,-66.17535,0.28923,0.43423,9.38908,-265.842,-265.957,-265.725,51.846
2.423,-104.10184,-70.11704,-66.17536,0.26511,0.45011,9.39179,-265.842,-265.957,-265.725,51.736
2.433,-104.10343,-70.11711,-66.17537,0.26069,0.47673,9.32292,-265.842,-265.957,-265.725,51.846
2.443,-104.10496,-70.11721,-66.17536,0.31033,0.49191,9.35591,-265.842,-265.957,-265.725,51.736
2.453,-104.10645,-70.11732,-66.17536,0.25337,0.54132,9.38534,-265.842,-265.957,-265.725,51.846
2.463,-104.10789,-70.11745,-66.17537,0.27933,0.49290,9.40490,-265.842,-265.957,-265.725,51.625
2.473,-104.10933,-70.11758,-66.17537,0.24929,0.46008,9.31251,-265.842,-265.957,-265.725,51.846
2.483,-104.11072,-70.11773,-66.17538,0.29407,0.45570,9.36488,-265.842,-265.957,-265.725,51.736
2.493,-104.11211,-70.11786,-66.17538,0.22793,0.49770,9.38347,-265.842,-265.957,-265.725,51.736
2.503,-104.11350,-70.11800,-66.17538,0.23540,0.48887,9.35980,-265.842,-265.957,-265.725,51.736
2.563,-104.12112,-70.11885,-66.17542,0.25001,0.49254,9.38353,-265.840,-265.957,-265.725,51.736
2.573,-104.12242,-70.11893,-66.17543,0.27278,0.46008,9.36241,-265.840,-265.957,-265.725,51.846
2.583,-104.12372,-70.11899,-66.17543,0.25973,0.48461,9.39444,-265.840,-265.957,-265.725,51.736
2.593,-104.12503,-70.11906,-66.17542,0.26429,0.49496,9.37350,-265.840,-265.957,-265.725,51.625
2.603,-104.12639,-70.11914,-66.17542,0.27358,0.49351,9.37111,-265.840,-265.957,-265.725,51.846
2.613,-104.12782,-70.11921,-66.17542,0.22746,0.47077,9.36710,-265.840,-265.953,-265.725,51.515
2.623,-104.12924,-70.11929,-66.17544,0.29337,0.49090,9.33297,-265.840,-265.953,-265.725,51.846
2.633,-104.13068,-70.11938,-66.17544,0.28199,0.50581,9.34977,-265.840,-265.953,-265.725,51.625
2.643,-104.13214,-70.11946,-66.17544,0.24033,0.50038,9.34087,-265.840,-265.953,-265.725,51.736
2.653,-104.13358,-70.11954,-66.17545,0.26797,0.51228,9.37786,-265.840,-265.953,-265.725,51.515
2.663,-104.13500,-70.11964,-66.17545,0.21468,0.47522,9.35781,-265.840,-265.953,-265.725,51.625
2.673,-104.13642,-70.11977,-66.17546,0.25016,0.47908,9.37435,-265.840,-265.953,-265.725,51.515
2.683,-104.13782,-70.11992,-66.17547,0.24539,0.49133,9.37710,-265.840,-265.953,-265.725,51.846
2.693,-104.13919,-70.12009,-66.17546,0.26402,0.48344,9.37395,-265.840,-265.953,-265.725,51.736
2.703,-104.14053,-70.12032,-66.17548,0.27630,0.49539,9.34980,-265.840,-265.953,-265.725,51.515
2.713,-104.14187,-70.12058,-66.17548,0.28576,0.51318,9.36301,-265.843,-265.953,-265.725,51.846
2.723,-104.14323,-70.12089,-66.17548,0.29640,0.45117,9.38300,-265.843,-265.953,-265.725,51.846
2.733,-104.14453,-70.12121,-66.17548,0.25533,0.50442,9.36018,-265.843,-265.953,-265.725,51.846
2.743,-104.14574,-70.12157,-66.17548,0.26590,0.49486,9.33732,-265.843,-265.953,-265.725,51.736
2.753,-104.14687,-70.12199,-66.17550,0.26943,0.52602,9.34644,-265.843,-265.953,-265.725,51.846
2.763,-104.14793,-70.12243,-66.17551,0.25527,0.50717,9.37946,-265.843,-265.953,-265.726,51.625
2.773,-104.14891,-70.12294,-66.17551,0.21312,0.47372,9.37229,-265.843,-265.953,-265.726,51.736
2.783,-104.14987,-70.12348,-66.17550,0.26124,0.49449,9.35460,-265.843,-265.953,-265.726,51.846
2.793,-104.15082,-70.12404,-66.17552,0.22929,0.47851,9.38074,-265.843,-265.953,-265.726,51.736
2.803,-104.15180,-70.12463,-66.17553,0.29890,0.47680,9.34751,-265.843,-265.953,-265.726,51.515
2.813,-104.15280,-70.12529,-66.17555,0.25068,0.46678,9.36555,-265.843,-265.953,-265.726,51.515
2.823,-104.15381,-70.12599,-66.17556,0.24398,0.48051,9.36026,-265.843,-265.953,-265.726,51.846
2.833,-104.15484,-70.12672,-66.17558,0.27086,0.49840,9.34938,-265.843,-265.953,-265.726,51.736
2.843,-104.15581,-70.12748,-66.17562,0.26290,0.49014,9.30638,-265.843,-265.953,-265.726,51.736
2.853,-104.15669,-70.12827,-66.17565,0.24168,0.48309,9.33089,-265.843,-265.953,-265.726,51.736
2.863,-104.15759,-70.12907,-66.17568,0.29600,0.49145,9.37800,-265.843,-265.953,-265.726,51.846
2.873,-104.15849,-70.12993,-66.17572,0.22560,0.46798,9.33816,-265.843,-265.953,-265.726,51.736
2.883,-104.15939,-70.13084,-66.17576,0.26147,0.47334,9.34303,-265.843,-265.953,-265.726,51.846
2.893,-104.16030,-70.13175,-66.17580,0.30598,0.49808,9.38000,-265.843,-265.953,-265.726,51.736
2.903,-104.16126,-70.13264,-66.17582,0.23114,0.49149,9.35054,-265.843,-265.953,-265.726,51.846
2.913,-104.16221,-70.13351,-66.17586,0.23322,0.47692,9.34859,-265.843,-265.953,-265.726,51.515
2.923,-104.16315,-70.13438,-66.17590,0.30220,0.49562,9.33940,-265.842,-265.953,-265.726,51.736
2.933,-104.16407,-70.13520,-66.17593,0.23767,0.45739,9.35029,-265.842,-265.953,-265.726,51.625
2.943,-104.16496,-70.13595,-66.17596,0.24908,0.47741,9.33294,-265.842,-265.953,-265.726,51.846
2.953,-104.16589,-70.13664,-66.17601,0.20803,0.51255,9.41031,-265.842,-265.953,-265.726,51.625
2.963,-104.16679,-70.13729,-66.17606,0.24394,0.48399,9.36708,-265.842,-265.953,-265.723,51.846
2.973,-104.16772,-70.13794,-66.17609,0.24826,0.48164,9.33775,-265.842,-265.953,-265.723,51.625
2.983,-104.16872,-70.13858,-66.17612,0.25377,0.50406,9.37143,-265.842,-265.953,-265.723,51.846
2.993,-104.16980,-70.13924,-66.17615,0.23406,0.46777,9.36753,-265.842,-265.953,-265.723,51.736
3.003,-104.17088,-70.13988,-66.17619,0.25840,0.51353,9.31672,-265.842,-265.953,-265.723,51.736
3.013,-104.17203,-70.14046,-66.17622,0.25928,0.45914,9.35073,-265.842,-265.953,-265.723,51.957
3.023,-104.17319,-70.14106,-66.17625,0.26498,0.46578,9.36840,-265.842,-265.958,-265.723,51.515
3.033,-104.17438,-70.14169,-66.17628,0.24507,0.46036,9.29200,-265.842,-265.958,-265.723,51.736
3.043,-104.17561,-70.14233,-66.17632,0.29291,0.49405,9.36150,-265.842,-265.958,-265.723,51.736
3.053,-104.17688,-70.14301,-66.17636,0.24256,0.50734,9.35210,-265.842,-265.958,-265.723,51.736
3.063,-104.17816,-70.14373,-66.17640,0.29654,0.47912,9.36036,-265.842,-265.958,-265.723,51.846
3.073,-104.17946,-70.14446,-66.17642,0.23989,0.50462,9.34889,-265.842,-265.958,-265.723,51.736
3.083,-104.18077,-70.14523,-66.17645,0.29092,0.49942,9.36549,-265.842,-265.958,-265.723,51.846
3.093,-104.18214,-70.14596,-66.17648,0.21973,0.47108,9.36508,-265.842,-265.958,-265.723,51.846
3.103,-104.18356,-70.14665,-66.17650,0.27480,0.48626,9.38079,-265.842,-265.958,-265.723,51.846
3.113,-104.18498,-70.14727,-66.17652,0.23756,0.46512,9.36875,-265.842,-265.958,-265.723,51.846
3.123,-104.18631,-70.14787,-66.17655,0.24835,0.46489,9.38365,-265.840,-265.958,-265.723,51.736
3.133,-104.18763,-70.14841,-66.17657,0.26632,0.52828,9.34482,-265.840,-265.958,-265.723,51.736
3.143,-104.18893,-70.14895,-66.17659,0.25368,0.51402,9.36777,-265.840,-265.958,-265.723,51.736
3.153,-104.19025,-70.14951,-66.17661,0.27430,0.50078,9.36063,-265.840,-265.958,-265.723,51.846
3.163,-104.19162,-70.15002,-66.17664,0.26912,0.47356,9.39089,-265.840,-265.958,-265.723,51.957
3.173,-104.19302,-70.15049,-66.17666,0.26745,0.45122,9.36847,-265.840,-265.958,-265.725,51.736
3.183,-104.19444,-70.15094,-66.17667,0.24863,0.48241,9.33855,-265.840,-265.958,-265.725,51.736
3.193,-104.19589,-70.15138,-66.17669,0.25803,0.50296,9.37587,-265.840,-265.958,-265.725,51.846
3.203,-104.19740,-70.15178,-66.17672,0.30061,0.53782,9.34082,-265.840,-265.958,-265.725,51.846
3.213,-104.19891,-70.15216,-66.17674,0.30669,0.46661,9.37732,-265.840,-265.958,-265.725,51.515
3.223,-104.20040,-70.15253,-66.17677,0.25186,0.50589,9.34770,-265.840,-265.954,-265.725,51.736
3.233,-104.20189,-70.15289,-66.17679,0.22144,0.45534,9.36072,-265.840,-265.954,-265.725,51.736
3.243,-104.20338,-70.15324,-66.17680,0.23373,0.49774,9.37986,-265.840,-265.954,-265.725,51.736
3.253,-104.20494,-70.15359,-66.17683,0.27323,0.48517,9.40612,-265.840,-265.954,-265.725,51.515
3.263,-104.20657,-70.15395,-66.17683,0.24832,0.47136,9.36513,-265.840,-265.954,-265.725,51.736
3.273,-104.20820,-70.15426,-66.17685,0.26934,0.45846,9.34432,-265.840,-265.954,-265.725,51.846
3.283,-104.20978,-70.15451,-66.17685,0.22999,0.44592,9.39053,-265.840,-265.954,-265.725,51.736
3.293,-104.21132,-70.15473,-66.17687,0.29995,0.51653,9.41046,-265.840,-265.954,-265.725,51.846
3.303,-104.21281,-70.15496,-66.17687,0.27646,0.51766,9.35252,-265.840,-265.954,-265.725,51.625
3.313,-104.21426,-70.15516,-66.17688,0.27935,0.50265,9.32766,-265.840,-265.954,-265.725,51.846
3.323,-104.21566,-70.15535,-66.17690,0.28729,0.48237,9.32254,-265.841,-265.954,-265.725,51.846
3.333,-104.21696,-70.15552,-66.17690,0.26746,0.48543,9.38561,-265.841,-265.954,-265.725,51.736
3.343,-104.21819,-70.15569,-66.17693,0.28308,0.48151,9.30605,-265.841,-265.954,-265.725,51.625
3.353,-104.21933,-70.15587,-66.17693,0.26907,0.48345,9.35909,-265.841,-265.954,-265.725,51.736
3.363,-104.22041,-70.15606,-66.17695,0.23426,0.48957,9.34090,-265.841,-265.954,-265.725,51.736
3.373,-104.22144,-70.15623,-66.17696,0.24310,0.49352,9.34894,-265.841,-265.954,-265.724,51.515
3.383,-104.22241,-70.15639,-66.17699,0.22230,0.48415,9.36382,-265.841,-265.954,-265.724,51.736
3.393,-104.22334,-70.15652,-66.17701,0.25041,0.49365,9.36785,-265.841,-265.954,-265.724,51.736
3.403,-104.22429,-70.15665,-66.17702,0.23373,0.46540,9.34583,-265.841,-265.954,-265.724,51.736
3.413,-104.22523,-70.15678,-66.17705,0.24530,0.46366,9.36596,-265.841,-265.954,-265.724,51.736
3.423,-104.22617,-70.15691,-66.17706,0.25330,0.51249,9.36898,-265.841,-265.957,-265.724,51.515
3.433,-104.22713,-70.15704,-66.17708,0.28665,0.46180,9.37730,-265.841,-265.957,-265.724,51.736
3.443,-104.22811,-70.15717,-66.17709,0.22851,0.48492,9.34373,-265.841,-265.957,-265.724,51.736
3.453,-104.22914,-70.15728,-66.17711,0.24689,0.49895,9.35496,-265.841,-265.957,-265.724,51.515
3.463,-104.23026,-70.15740,-66.17713,0.26787,0.52528,9.36091,-265.841,-265.957,-265.724,51.736
3.473,-104.23145,-70.15753,-66.17713,0.27484,0.48430,9.36673,-265.841,-265.957,-265.724,51.846
3.483,-104.23273,-70.15767,-66.17716,0.30024,0.48963,9.39771,-265.841,-265.957,-265.724,51.736
3.493,-104.23404,-70.15781,-66.17719,0.22000,0.47958,9.38394,-265.841,-265.957,-265.724,51.846
3.503,-104.23532,-70.15798,-66.17720,0.27646,0.47778,9.36435,-265.841,-265.957,-265.724,51.625
3.513,-104.23660,-70.15815,-66.17722,0.24502,0.45029,9.39054,-265.841,-265.957,-265.724,51.736
3.523,-104.23784,-70.15831,-66.17723,0.27105,0.48375,9.32451,-265.841,-265.957,-265.724,51.736
3.533,-104.23907,-70.15849,-66.17724,0.26900,0.48846,9.36831,-265.841,-265.957,-265.724,51.846
3.543,-104.24031,-70.15863,-66.17725,0.27740,0.46052,9.36523,-265.841,-265.957,-265.724,51.625
3.553,-104.24161,-70.15878,-66.17727,0.24802,0.46026,9.37764,-265.841,-265.957,-265.724,51.846
3.563,-104.24293,-70.15894,-66.17728,0.27251,0.48317,9.38201,-265.841,-265.957,-265.724,51.846
3.573,-104.24428,-70.15909,-66.17730,0.25202,0.49241,9.33409,-265.841,-265.957,-265.726,51.846
3.583,-104.24563,-70.15924,-66.17732,0.23922,0.48522,9.41008,-265.841,-265.957,-265.726,51.846
3.593,-104.24699,-70.15940,-66.17735,0.22788,0.50533,9.36856,-265.841,-265.957,-265.726,51.846
3.603,-104.24834,-70.15956,-66.17739,0.22329,0.46607,9.34701,-265.841,-265.957,-265.726,51.625
3.613,-104.24968,-70.15969,-66.17743,0.25681,0.47409,9.35066,-265.841,-265.957,-265.726,51.846
3.623,-104.25105,-70.15982,-66.17746,0.22879,0.49002,9.37948,-265.841,-265.956,-265.726,51.736
3.633,-104.25249,-70.15993,-66.17751,0.23126,0.47507,9.37875,-265.841,-265.956,-265.726,51.625
3.643,-104.25401,-70.16007,-66.17754,0.26568,0.43734,9.35204,-265.841,-265.956,-265.726,51.846
3.653,-104.25557,-70.16023,-66.17759,0.21570,0.52101,9.39259,-265.841,-265.956,-265.726,51.736
3.663,-104.25719,-70.16039,-66.17764,0.23261,0.46230,9.34061,-265.841,-265.956,-265.726,51.515
3.673,-104.25884,-70.16057,-66.17767,0.27536,0.50624,9.38714,-265.841,-265.956,-265.726,51.846
3.683,-104.26054,-70.16074,-66.17773,0.23606,0.46201,9.36032,-265.841,-265.956,-265.726,51.736
3.693,-104.26217,-70.16090,-66.17776,0.23615,0.49796,9.31675,-265.841,-265.956,-265.726,51.515
3.703,-104.26376,-70.16109,-66.17783,0.26000,0.46792,9.33099,-265.841,-265.956,-265.726,51.625
3.713,-104.26537,-70.16133,-66.17786,0.26211,0.48189,9.37355,-265.841,-265.956,-265.726,51.736
3.723,-104.26695,-70.16161,-66.17789,0.26825,0.45079,9.35038,-265.840,-265.956,-265.726,51.736
3.733,-104.26848,-70.16198,-66.17792,0.25469,0.48835,9.37753,-265.840,-265.956,-265.726,51.736
3.743,-104.27002,-70.16248,-66.17794,0.23684,0.45598,9.39452,-265.840,-265.956,-265.726,51.736
3.753,-104.27153,-70.16306,-66.17797,0.28890,0.50898,9.36022,-265.840,-265.956,-265.726,51.736
3.763,-104.27294,-70.16372,-66.17799,0.29382,0.47725,9.38489,-265.840,-265.956,-265.726,51.736
3.773,-104.27431,-70.16439,-66.17801,0.25025,0.47401,9.34783,-265.840,-265.956,-265.724,51.736
3.783,-104.27563,-70.16512,-66.17803,0.24617,0.49020,9.38434,-265.840,-265.956,-265.724,51.846
3.793,-104.27689,-70.16591,-66.17807,0.23424,0.49036,9.34693,-265.840,-265.956,-265.724,51.736
3.803,-104.27803,-70.16675,-66.17811,0.29572,0.48335,9.36557,-265.840,-265.956,-265.724,51.736
3.813,-104.27910,-70.16770,-66.17814,0.26804,0.46737,9.37724,-265.840,-265.956,-265.724,51.846
3.823,-104.28013,-70.16879,-66.17816,0.25512,0.48753,9.35824,-265.840,-265.957,-265.724,51.846
3.833,-104.28111,-70.16996,-66.17819,0.26895,0.49270,9.37191,-265.840,-265.957,-265.724,51.846
3.843,-104.28198,-70.17120,-66.17823,0.26907,0.48231,9.36432,-265.840,-265.957,-265.724,51.846
3.853,-104.28278,-70.17251,-66.17828,0.25017,0.48133,9.35464,-265.840,-265.957,-265.724,51.957
3.863,-104.28355,-70.17384,-66.17832,0.24396,0.43993,9.39300,-265.840,-265.957,-265.724,51.736
3.873,-104.28427,-70.17519,-66.17838,0.21581,0.51403,9.36810,-265.840,-265.957,-265.724,51.625
3.883,-104.28496,-70.17652,-66.17845,0.25143,0.50972,9.34728,-265.840,-265.957,-265.724,51.736
3.893,-104.28563,-70.17792,-66.17852,0.24584,0.48557,9.37753,-265.840,-265.957,-265.724,51.515
3.903,-104.28626,-70.17941,-66.17860,0.29668,0.46530,9.36002,-265.840,-265.957,-265.724,51.846
3.913,-104.28684,-70.18098,-66.17870,0.27166,0.49460,9.35663,-265.840,-265.957,-265.724,51.846
3.923,-104.28738,-70.18259,-66.17877,0.27434,0.49543,9.37070,-265.841,-265.957,-265.724,51.515
3.933,-104.28792,-70.18421,-66.17887,0.27428,0.46056,9.38734,-265.841,-265.957,-265.724,51.736
3.943,-104.28843,-70.18578,-66.17899,0.24878,0.49868,9.38753,-265.841,-265.957,-265.724,51.846
3.953,-104.28893,-70.18736,-66.17908,0.29308,0.47152,9.39778,-265.841,-265.957,-265.724,51.625
3.963,-104.28942,-70.18895,-66.17918,0.27006,0.46007,9.36763,-265.841,-265.957,-265.724,51.846
3.973,-104.28993,-70.19051,-66.17929,0.26391,0.45883,9.35838,-265.841,-265.957,-265.724,51.736
3.983,-104.29044,-70.19204,-66.17938,0.26927,0.50187,9.35981,-265.841,-265.957,-265.724,51.846
3.993,-104.29092,-70.19353,-66.17948,0.27654,0.49868,9.42055,-265.841,-265.957,-265.724,51.515
4.003,-104.29138,-70.19501,-66.17957,0.27218,0.52105,9.34687,-265.841,-265.957,-265.724,51.846
4.013,-104.29186,-70.19650,-66.17963,0.27857,0.49853,9.36426,-265.841,-265.957,-265.724,51.846
4.023,-104.29234,-70.19796,-66.17972,0.30016,0.50258,9.36469,-265.841,-265.955,-265.724,51.846
4.033,-104.29282,-70.19939,-66.17980,0.26663,0.49005,9.39202,-265.841,-265.955,-265.724,51.846
4.043,-104.29331,-70.20079,-66.17989,0.21091,0.46484,9.36308,-265.841,-265.955,-265.724,51.625
4.053,-104.29381,-70.20218,-66.18000,0.25475,0.48372,9.36911,-265.841,-265.955,-265.724,51.846
4.063,-104.29430,-70.20359,-66.18011,0.23139,0.46241,9.37921,-265.841,-265.955,-265.724,51.736
4.073,-104.29478,-70.20496,-66.18021,0.19840,0.47667,9.38149,-265.841,-265.955,-265.724,51.957
4.083,-104.29528,-70.20626,-66.18033,0.27429,0.54217,9.34236,-265.841,-265.955,-265.724,51.846
4.093,-104.29578,-70.20753,-66.18044,0.20747,0.50010,9.35649,-265.841,-265.955,-265.724,51.736
4.103,-104.29626,-70.20880,-66.18056,0.26816,0.49574,9.36426,-265.841,-265.955,-265.724,51.736
4.113,-104.29672,-70.21008,-66.18069,0.28973,0.50286,9.36387,-265.841,-265.955,-265.724,51.846
4.123,-104.29720,-70.21133,-66.18082,0.27488,0.51469,9.38952,-265.841,-265.955,-265.724,51.736
4.133,-104.29769,-70.21252,-66.18098,0.27739,0.45829,9.38896,-265.841,-265.955,-265.724,51.846
4.143,-104.29813,-70.21371,-66.18114,0.24539,0.45295,9.37887,-265.841,-265.955,-265.724,51.736
4.153,-104.29857,-70.21492,-66.18129,0.21295,0.49023,9.37543,-265.841,-265.955,-265.724,51.846
4.163,-104.29897,-70.21609,-66.18148,0.25323,0.51376,9.40797,-265.841,-265.955,-265.724,51.515
4.173,-104.29938,-70.21729,-66.18166,0.25920,0.46344,9.37443,-265.841,-265.955,-265.722,51.846
4.183,-104.29977,-70.21848,-66.18182,0.19986,0.44638,9.38605,-265.841,-265.955,-265.722,51.846
4.193,-104.30014,-70.21973,-66.18198,0.29603,0.49178,9.35950,-265.841,-265.955,-265.722,51.736
4.203,-104.30054,-70.22102,-66.18217,0.24691,0.49666,9.35979,-265.841,-265.955,-265.722,51.846
4.213,-104.30093,-70.22235,-66.18237,0.26758,0.47618,9.37198,-265.841,-265.955,-265.722,51.736
4.223,-104.30132,-70.22371,-66.18256,0.28037,0.51310,9.35335,-265.841,-265.957,-265.722,51.846
4.233,-104.30171,-70.22511,-66.18282,0.25545,0.49027,9.37551,-265.841,-265.957,-265.722,51.846
4.243,-104.30211,-70.22654,-66.18308,0.24393,0.48213,9.38638,-265.841,-265.957,-265.722,51.515
4.253,-104.30247,-70.22803,-66.18333,0.27397,0.48749,9.40933,-265.841,-265.957,-265.722,51.736
4.263,-104.30283,-70.22959,-66.18360,0.22412,0.45730,9.36313,-265.841,-265.957,-265.722,51.846
4.273,-104.30322,-70.23119,-66.18387,0.26627,0.45614,9.35075,-265.841,-265.957,-265.722,51.846
4.283,-104.30359,-70.23284,-66.18412,0.23516,0.46940,9.39526,-265.841,-265.957,-265.722,51.625
4.293,-104.30397,-70.23454,-66.18437,0.27580,0.50502,9.36343,-265.841,-265.957,-265.722,51.846
4.303,-104.30434,-70.23627,-66.18462,0.24738,0.45475,9.33384,-265.841,-265.957,-265.722,51.736
4.313,-104.30473,-70.23804,-66.18485,0.25421,0.53330,9.39382,-265.841,-265.957,-265.722,51.736
4.323,-104.30514,-70.23981,-66.18509,0.22803,0.48584,9.39639,-265.841,-265.957,-265.722,51.625
4.333,-104.30555,-70.24167,-66.18532,0.26997,0.49976,9.42013,-265.840,-265.957,-265.722,51.625
4.343,-104.30595,-70.24355,-66.18553,0.23548,0.51618,9.37898,-265.840,-265.957,-265.722,51.736
4.353,-104.30635,-70.24545,-66.18573,0.28768,0.47410,9.37966,-265.840,-265.957,-265.722,51.846
4.363,-104.30675,-70.24735,-66.18591,0.26117,0.49498,9.39118,-265.840,-265.957,-265.722,51.736
4.373,-104.30717,-70.24921,-66.18608,0.22727,0.49145,9.35254,-265.840,-265.957,-265.722,51.625
4.383,-104.30765,-70.25097,-66.18622,0.22091,0.49549,9.43895,-265.840,-265.957,-265.725,51.515
4.393,-104.30817,-70.25268,-66.18636,0.27413,0.43338,9.41318,-265.840,-265.957,-265.725,51.736
4.403,-104.30869,-70.25433,-66.18648,0.25229,0.49640,9.38151,-265.840,-265.957,-265.725,51.846
4.413,-104.30920,-70.25587,-66.18658,0.25254,0.50756,9.39232,-265.840,-265.957,-265.725,51.625
4.423,-104.30972,-70.25731,-66.18668,0.26809,0.53574,9.39544,-265.840,-265.957,-265.725,51.846
4.433,-104.31023,-70.25867,-66.18677,0.18062,0.44905,9.31685,-265.840,-265.955,-265.725,51.736
4.443,-104.31077,-70.25996,-66.18684,0.23832,0.50164,9.38548,-265.840,-265.955,-265.725,51.736
4.453,-104.31127,-70.26120,-66.18691,0.25386,0.49297,9.38676,-265.840,-265.955,-265.725,51.736
4.463,-104.31181,-70.26236,-66.18699,0.23922,0.49425,9.34974,-265.840,-265.955,-265.725,51.846
4.473,-104.31239,-70.26343,-66.18705,0.24907,0.51053,9.37019,-265.840,-265.955,-265.725,51.736
4.483,-104.31297,-70.26442,-66.18709,0.27406,0.48017,9.40172,-265.840,-265.955,-265.725,51.736
4.493,-104.31356,-70.26535,-66.18715,0.27839,0.51241,9.38712,-265.840,-265.955,-265.725,51.736
4.503,-104.31412,-70.26628,-66.18721,0.25724,0.46799,9.36275,-265.840,-265.955,-265.725,51.846
4.513,-104.31462,-70.26721,-66.18729,0.22557,0.46051,9.40735,-265.840,-265.955,-265.725,51.736
4.523,-104.31510,-70.26814,-66.18737,0.27961,0.50817,9.37669,-265.840,-265.955,-265.725,51.846
4.533,-104.31556,-70.26906,-66.18745,0.24423,0.45031,9.39858,-265.843,-265.955,-265.725,51.736
4.543,-104.31602,-70.27006,-66.18756,0.22423,0.44581,9.37162,-265.843,-265.955,-265.725,51.736
4.553,-104.31647,-70.27107,-66.18767,0.23627,0.47778,9.36870,-265.843,-265.955,-265.725,51.736
4.563,-104.31693,-70.27212,-66.18779,0.23824,0.47245,9.37636,-265.843,-265.955,-265.725,51.736
4.573,-104.31737,-70.27317,-66.18789,0.28602,0.47993,9.40979,-265.843,-265.955,-265.725,51.736
4.583,-104.31780,-70.27425,-66.18801,0.26685,0.50806,9.38310,-265.843,-265.955,-265.726,51.846
4.593,-104.31820,-70.27534,-66.18813,0.28502,0.50897,9.36946,-265.843,-265.955,-265.726,51.846
4.603,-104.31857,-70.27649,-66.18826,0.25411,0.46653,9.39853,-265.843,-265.955,-265.726,51.736
4.613,-104.31892,-70.27768,-66.18840,0.28138,0.45320,9.34155,-265.843,-265.955,-265.726,51.736
4.623,-104.31926,-70.27885,-66.18855,0.28490,0.51748,9.39234,-265.843,-265.955,-265.726,51.846
4.633,-104.31962,-70.28001,-66.18871,0.23131,0.51221,9.35045,-265.843,-265.957,-265.726,51.736
4.643,-104.31999,-70.28117,-66.18887,0.28444,0.48789,9.38040,-265.843,-265.957,-265.726,51.846
4.653,-104.32037,-70.28235,-66.18904,0.21671,0.46603,9.35625,-265.843,-265.957,-265.726,51.515
4.663,-104.32076,-70.28353,-66.18921,0.24710,0.47222,9.39970,-265.843,-265.957,-265.726,51.736
4.673,-104.32116,-70.28473,-66.18938,0.22123,0.50842,9.39829,-265.843,-265.957,-265.726,51.846
4.683,-104.32157,-70.28597,-66.18955,0.25372,0.46992,9.37962,-265.843,-265.957,-265.726,51.736
4.693,-104.32198,-70.28725,-66.18974,0.25584,0.45679,9.34631,-265.843,-265.957,-265.726,51.846
4.703,-104.32243,-70.28857,-66.18996,0.21042,0.43795,9.35837,-265.843,-265.957,-265.726,51.736
4.713,-104.32289,-70.28996,-66.19018,0.24446,0.46906,9.37719,-265.843,-265.957,-265.726,51.515
4.723,-104.32336,-70.29137,-66.19040,0.22272,0.47506,9.40406,-265.843,-265.957,-265.726,51.736
4.733,-104.32382,-70.29282,-66.19061,0.29699,0.51060,9.36103,-265.840,-265.957,-265.726,51.846
4.743,-104.32430,-70.29430,-66.19083,0.27146,0.47279,9.38044,-265.840,-265.957,-265.726,51.736
4.753,-104.32479,-70.29584,-66.19101,0.25150,0.49528,9.39559,-265.840,-265.957,-265.726,51.736
4.763,-104.32526,-70.29742,-66.19122,0.23233,0.48391,9.38072,-265.840,-265.957,-265.726,51.846
4.773,-104.32572,-70.29908,-66.19141,0.24983,0.47784,9.34621,-265.840,-265.957,-265.726,51.846
4.783,-104.32617,-70.30074,-66.19160,0.25379,0.46075,9.39333,-265.840,-265.957,-265.724,51.736
4.793,-104.32663,-70.30239,-66.19180,0.25027,0.46759,9.37962,-265.840,-265.957,-265.724,51.736
4.803,-104.32708,-70.30403,-66.19199,0.26503,0.45854,9.38532,-265.840,-265.957,-265.724,51.736
4.813,-104.32751,-70.30566,-66.19216,0.26085,0.52797,9.38622,-265.840,-265.957,-265.724,51.846
4.823,-104.32796,-70.30728,-66.19234,0.26986,0.47966,9.37237,-265.840,-265.957,-265.724,51.515
4.833,-104.32842,-70.30890,-66.19247,0.21699,0.47527,9.36385,-265.840,-265.955,-265.724,51.846
4.843,-104.32887,-70.31050,-66.19262,0.30774,0.43936,9.37463,-265.840,-265.955,-265.724,51.736
4.853,-104.32933,-70.31207,-66.19279,0.25524,0.51476,9.35289,-265.840,-265.955,-265.724,51.736
4.863,-104.32977,-70.31363,-66.19296,0.26137,0.47655,9.38764,-265.840,-265.955,-265.724,51.736
4.873,-104.33021,-70.31522,-66.19312,0.24801,0.53817,9.37489,-265.840,-265.955,-265.724,51.736
4.883,-104.33064,-70.31683,-66.19328,0.23214,0.53807,9.39456,-265.840,-265.955,-265.724,51.736
4.893,-104.33107,-70.31849,-66.19343,0.27641,0.47863,9.39209,-265.840,-265.955,-265.724,51.515
4.903,-104.33150,-70.32015,-66.19357,0.23969,0.45046,9.33626,-265.840,-265.955,-265.724,51.625
4.913,-104.33192,-70.32188,-66.19370,0.27722,0.51694,9.36579,-265.840,-265.955,-265.724,51.846
4.923,-104.33234,-70.32365,-66.19384,0.25881,0.49881,9.39518,-265.840,-265.955,-265.724,51.625
4.933,-104.33279,-70.32547,-66.19402,0.29485,0.45305,9.37454,-265.839,-265.955,-265.724,51.736
4.943,-104.33322,-70.32730,-66.19422,0.23733,0.52914,9.34355,-265.839,-265.955,-265.724,51.736
4.953,-104.33364,-70.32914,-66.19449,0.22002,0.48181,9.36020,-265.839,-265.955,-265.724,51.736
4.963,-104.33405,-70.33097,-66.19478,0.24986,0.46610,9.39852,-265.839,-265.955,-265.724,51.736
4.973,-104.33443,-70.33281,-66.19511,0.23844,0.49050,9.38111,-265.839,-265.955,-265.724,51.846
4.983,-104.33482,-70.33466,-66.19548,0.23509,0.47893,9.37271,-265.839,-265.955,-265.724,51.625
4.993,-104.33522,-70.33652,-66.19588,0.26128,0.44925,9.37369,-265.839,-265.955,-265.724,51.736
5.003,-104.33566,-70.33840,-66.19634,0.21932,0.50986,9.37375,-265.839,-265.955,-265.724,51.625
5.013,-104.33613,-70.34027,-66.19688,0.21273,0.47712,9.35780,-265.839,-265.955,-265.724,51.846
5.023,-104.33662,-70.34212,-66.19749,0.24717,0.47433,9.33697,-265.839,-265.955,-265.724,51.736
5.033,-104.33712,-70.34397,-66.19814,0.22814,0.51912,9.36006,-265.839,-265.956,-265.724,51.625
5.043,-104.33763,-70.34585,-66.19883,0.24125,0.47904,9.38800,-265.839,-265.956,-265.724,51.515
5.053,-104.33816,-70.34772,-66.19958,0.24848,0.45111,9.39577,-265.839,-265.956,-265.724,51.846
5.063,-104.33875,-70.34958,-66.20036,0.27307,0.50090,9.40646,-265.839,-265.956,-265.724,51.736
5.123,-104.34241,-70.36092,-66.20451,0.23535,0.46112,9.32253,-265.839,-265.956,-265.724,51.846
5.133,-104.34297,-70.36284,-66.20507,0.27030,0.50663,9.40763,-265.842,-265.956,-265.724,51.625
5.143,-104.34355,-70.36474,-66.20557,0.26657,0.49693,9.38395,-265.842,-265.956,-265.724,51.515
5.153,-104.34410,-70.36658,-66.20601,0.24680,0.46716,9.37761,-265.842,-265.956,-265.724,51.736
5.163,-104.34469,-70.36836,-66.20638,0.23836,0.45981,9.38687,-265.842,-265.956,-265.724,51.736
5.173,-104.34528,-70.37009,-66.20672,0.22478,0.50983,9.34401,-265.842,-265.956,-265.724,51.846
5.183,-104.34586,-70.37175,-66.20701,0.27249,0.52007,9.40195,-265.842,-265.956,-265.725,51.736
5.193,-104.34638,-70.37331,-66.20727,0.23500,0.48474,9.39198,-265.842,-265.956,-265.725,51.846
5.203,-104.34690,-70.37484,-66.20753,0.23176,0.50608,9.35128,-265.842,-265.956,-265.725,51.515
5.213,-104.34745,-70.37633,-66.20778,0.22499,0.48609,9.36221,-265.842,-265.956,-265.725,51.846
5.223,-104.34808,-70.37775,-66.20804,0.25701,0.45603,9.34229,-265.842,-265.956,-265.725,51.846
5.233,-104.34875,-70.37917,-66.20830,0.20920,0.51594,9.38537,-265.842,-265.955,-265.725,51.736
5.243,-104.34953,-70.38054,-66.20861,0.24484,0.47094,9.36553,-265.842,-265.955,-265.725,51.736
5.253,-104.35040,-70.38189,-66.20898,0.23164,0.47961,9.35622,-265.842,-265.955,-265.725,51.846
5.263,-104.35134,-70.38325,-66.20943,0.22242,0.50912,9.37336,-265.842,-265.955,-265.725,51.625
5.273,-104.35236,-70.38463,-66.20993,0.21938,0.50336,9.38062,-265.842,-265.955,-265.725,51.736
5.283,-104.35346,-70.38605,-66.21053,0.24229,0.49094,9.38715,-265.842,-265.955,-265.725,51.846
5.293,-104.35463,-70.38752,-66.21122,0.25392,0.45486,9.34913,-265.842,-265.955,-265.725,51.736
5.303,-104.35589,-70.38902,-66.21201,0.24218,0.50469,9.36538,-265.842,-265.955,-265.725,51.846
5.313,-104.35725,-70.39056,-66.21291,0.25236,0.49325,9.35700,-265.842,-265.955,-265.725,51.736
5.323,-104.35870,-70.39211,-66.21390,0.26409,0.47730,9.37277,-265.842,-265.955,-265.725,51.736
5.333,-104.36027,-70.39370,-66.21500,0.25789,0.47914,9.36712,-265.840,-265.955,-265.725,51.736
5.343,-104.36189,-70.39532,-66.21623,0.26984,0.44470,9.36368,-265.840,-265.955,-265.725,51.736
5.353,-104.36358,-70.39699,-66.21753,0.27502,0.50013,9.40003,-265.840,-265.955,-265.725,51.736
5.363,-104.36528,-70.39866,-66.21894,0.21253,0.45643,9.36874,-265.840,-265.955,-265.725,51.625
5.373,-104.36701,-70.40033,-66.22041,0.23498,0.48628,9.39439,-265.840,-265.955,-265.725,51.736
5.383,-104.36877,-70.40194,-66.22195,0.26428,0.49762,9.36545,-265.840,-265.955,-265.724,51.846
5.393,-104.37054,-70.40350,-66.22349,0.24725,0.50015,9.36902,-265.840,-265.955,-265.724,51.736
5.403,-104.37236,-70.40498,-66.22508,0.25427,0.45231,9.39095,-265.840,-265.955,-265.724,51.625
5.413,-104.37418,-70.40642,-66.22673,0.24764,0.50013,9.36259,-265.840,-265.955,-265.724,51.846
5.423,-104.37600,-70.40784,-66.22842,0.23612,0.45210,9.38247,-265.840,-265.955,-265.724,51.736
5.433,-104.37785,-70.40930,-66.23010,0.23067,0.45741,9.37842,-265.840,-265.956,-265.724,51.846
5.443,-104.37966,-70.41080,-66.23179,0.24796,0.47018,9.35629,-265.840,-265.956,-265.724,51.515
5.453,-104.38145,-70.41233,-66.23346,0.24371,0.47240,9.34180,-265.840,-265.956,-265.724,51.736
5.463,-104.38316,-70.41388,-66.23514,0.27601,0.48165,9.37800,-265.840,-265.956,-265.724,51.846
5.473,-104.38482,-70.41543,-66.23681,0.23312,0.48802,9.34091,-265.840,-265.956,-265.724,51.846
5.483,-104.38643,-70.41695,-66.23848,0.22930,0.51385,9.39185,-265.840,-265.956,-265.724,51.515
5.493,-104.38802,-70.41850,-66.24016,0.21270,0.51479,9.37452,-265.840,-265.956,-265.724,51.846
5.503,-104.38961,-70.42008,-66.24184,0.24324,0.51393,9.37177,-265.840,-265.956,-265.724,51.736
5.513,-104.39119,-70.42173,-66.24350,0.25357,0.48828,9.35863,-265.840,-265.956,-265.724,51.736
5.523,-104.39272,-70.42344,-66.24509,0.23888,0.48889,9.35458,-265.840,-265.956,-265.724,51.846
5.533,-104.39423,-70.42522,-66.24665,0.29631,0.46263,9.36686,-265.840,-265.956,-265.724,51.736
5.543,-104.39572,-70.42706,-66.24815,0.25889,0.48962,9.40447,-265.840,-265.956,-265.724,51.625
5.553,-104.39719,-70.42892,-66.24956,0.26271,0.49915,9.36986,-265.840,-265.956,-265.724,51.846
5.563,-104.39864,-70.43079,-66.25092,0.24802,0.49903,9.37707,-265.840,-265.956,-265.724,51.846
5.573,-104.40010,-70.43266,-66.25224,0.27244,0.49611,9.34617,-265.840,-265.956,-265.724,51.515
5.583,-104.40158,-70.43454,-66.25350,0.20635,0.45637,9.36793,-265.840,-265.956,-265.725,51.846
5.593,-104.40308,-70.43641,-66.25468,0.29798,0.48686,9.37561,-265.840,-265.956,-265.725,51.625
5.603,-104.40459,-70.43825,-66.25577,0.33065,0.46531,9.37858,-265.840,-265.956,-265.725,51.736
5.613,-104.40611,-70.44004,-66.25676,0.24555,0.47333,9.39085,-265.840,-265.956,-265.725,51.736
5.623,-104.40757,-70.44180,-66.25762,0.28633,0.45753,9.36164,-265.840,-265.956,-265.725,51.846
5.633,-104.40894,-70.44353,-66.25843,0.24184,0.45569,9.40941,-265.840,-265.956,-265.725,51.736
5.643,-104.41028,-70.44528,-66.25922,0.25507,0.52222,9.40874,-265.840,-265.956,-265.725,51.957
5.653,-104.41155,-70.44696,-66.25993,0.24460,0.53199,9.37371,-265.840,-265.956,-265.725,51.846
5.663,-104.41281,-70.44859,-66.26059,0.27865,0.48746,9.38441,-265.840,-265.956,-265.725,51.736
5.673,-104.41409,-70.45021,-66.26118,0.24385,0.49996,9.31876,-265.840,-265.956,-265.725,51.515
5.683,-104.41537,-70.45182,-66.26174,0.27318,0.49955,9.33973,-265.840,-265.956,-265.725,51.736
5.693,-104.41666,-70.45341,-66.26226,0.25604,0.50907,9.37182,-265.840,-265.956,-265.725,51.957
5.703,-104.41795,-70.45500,-66.26270,0.23117,0.44778,9.36640,-265.840,-265.956,-265.725,51.846
5.713,-104.41928,-70.45657,-66.26310,0.29015,0.46969,9.30893,-265.840,-265.956,-265.725,51.515
5.723,-104.42061,-70.45819,-66.26345,0.21301,0.52397,9.36524,-265.840,-265.956,-265.725,51.515
5.733,-104.42194,-70.45983,-66.26379,0.27565,0.48009,9.37037,-265.840,-265.956,-265.725,51.625
5.743,-104.42327,-70.46151,-66.26413,0.24291,0.50817,9.37220,-265.841,-265.956,-265.725,51.846
5.753,-104.42464,-70.46320,-66.26443,0.29452,0.48718,9.36676,-265.841,-265.956,-265.725,51.846
5.763,-104.42604,-70.46489,-66.26467,0.27064,0.48454,9.33376,-265.841,-265.956,-265.725,51.846
5.773,-104.42743,-70.46658,-66.26488,0.24104,0.50465,9.35573,-265.841,-265.956,-265.725,51.736
5.783,-104.42879,-70.46827,-66.26507,0.26661,0.49423,9.37954,-265.841,-265.956,-265.725,51.625
5.793,-104.43012,-70.46999,-66.26526,0.26548,0.49906,9.32926,-265.841,-265.956,-265.725,51.846
5.803,-104.43137,-70.47171,-66.26544,0.26476,0.48502,9.38480,-265.841,-265.956,-265.725,51.736
5.813,-104.43250,-70.47341,-66.26559,0.26725,0.46891,9.37925,-265.841,-265.956,-265.725,51.846
5.823,-104.43354,-70.47508,-66.26573,0.21189,0.44789,9.33822,-265.841,-265.956,-265.725,51.736
5.833,-104.43446,-70.47668,-66.26588,0.24762,0.50621,9.34126,-265.841,-265.956,-265.725,51.736
5.843,-104.43528,-70.47824,-66.26599,0.25067,0.43370,9.34077,-265.841,-265.956,-265.725,51.736
5.853,-104.43601,-70.47975,-66.26611,0.26168,0.44999,9.36123,-265.841,-265.956,-265.725,51.736
5.863,-104.43665,-70.48122,-66.26620,0.22192,0.52175,9.36325,-265.841,-265.956,-265.725,51.736
5.873,-104.43723,-70.48265,-66.26627,0.21489,0.45901,9.32572,-265.841,-265.956,-265.725,51.625
5.883,-104.43774,-70.48402,-66.26633,0.26205,0.49292,9.34094,-265.841,-265.956,-265.725,51.736
5.893,-104.43821,-70.48525,-66.26640,0.31436,0.47694,9.34191,-265.841,-265.956,-265.725,51.736
5.903,-104.43863,-70.48640,-66.26643,0.21910,0.49675,9.35290,-265.841,-265.956,-265.725,51.736
5.913,-104.43904,-70.48746,-66.26646,0.29794,0.49220,9.36634,-265.841,-265.956,-265.725,51.515
5.923,-104.43942,-70.48843,-66.26649,0.26484,0.47771,9.37961,-265.841,-265.956,-265.725,51.736
5.933,-104.43978,-70.48929,-66.26652,0.25347,0.49562,9.37468,-265.841,-265.956,-265.725,51.736
5.943,-104.44014,-70.49007,-66.26654,0.22133,0.46232,9.38522,-265.841,-265.956,-265.725,51.515
5.953,-104.44051,-70.49078,-66.26655,0.25356,0.48604,9.37874,-265.841,-265.956,-265.725,51.846
5.963,-104.44093,-70.49141,-66.26656,0.27109,0.47690,9.34464,-265.841,-265.956,-265.725,51.846
5.973,-104.44141,-70.49197,-66.26657,0.24309,0.48712,9.39118,-265.841,-265.956,-265.725,51.846
5.983,-104.44196,-70.49242,-66.26658,0.24715,0.47514,9.34863,-265.841,-265.956,-265.725,51.846
5.993,-104.44254,-70.49278,-66.26660,0.26167,0.45263,9.34553,-265.841,-265.956,-265.725,51.736
6.003,-104.44315,-70.49307,-66.26662,0.26178,0.47876,9.35547,-265.841,-265.956,-265.725,51.846
6.013,-104.44381,-70.49332,-66.26663,0.27874,0.44250,9.36772,-265.841,-265.956,-265.725,51.846
6.023,-104.44454,-70.49356,-66.26664,0.25775,0.49787,9.34131,-265.841,-265.956,-265.725,51.736
6.033,-104.44533,-70.49377,-66.26665,0.25246,0.48178,9.36951,-265.841,-265.956,-265.725,51.736
6.043,-104.44623,-70.49395,-66.26667,0.23236,0.48949,9.32080,-265.841,-265.957,-265.725,51.846
6.053,-104.44723,-70.49412,-66.26668,0.25807,0.46262,9.36036,-265.841,-265.957,-265.725,51.846
6.063,-104.44834,-70.49424,-66.26668,0.25416,0.50669,9.35373,-265.841,-265.957,-265.725,51.736
6.073,-104.44954,-70.49433,-66.26669,0.19679,0.44555,9.37680,-265.841,-265.957,-265.725,51.736
6.083,-104.45085,-70.49439,-66.26670,0.23833,0.49975,9.39434,-265.841,-265.957,-265.725,51.625
6.093,-104.45225,-70.49442,-66.26671,0.23848,0.45394,9.34830,-265.841,-265.957,-265.725,51.846
6.103,-104.45368,-70.49446,-66.26672,0.23279,0.48377,9.33087,-265.841,-265.957,-265.725,51.736
6.113,-104.45519,-70.49451,-66.26674,0.25885,0.45960,9.37726,-265.841,-265.957,-265.725,51.515
6.123,-104.45676,-70.49454,-66.26675,0.26739,0.46262,9.32942,-265.841,-265.957,-265.725,51.846
6.133,-104.45840,-70.49458,-66.26676,0.24590,0.44481,9.35197,-265.841,-265.957,-265.725,51.846
6.143,-104.46010,-70.49460,-66.26678,0.25387,0.49333,9.37912,-265.842,-265.957,-265.725,51.846
6.153,-104.46184,-70.49463,-66.26681,0.26840,0.47721,9.33016,-265.842,-265.957,-265.725,51.736
6.163,-104.46358,-70.49465,-66.26685,0.26514,0.48806,9.37313,-265.842,-265.957,-265.725,51.846
6.173,-104.46532,-70.49467,-66.26689,0.26013,0.49362,9.32525,-265.842,-265.957,-265.725,51.846
6.183,-104.46706,-70.49469,-66.26695,0.26992,0.51265,9.36821,-265.842,-265.957,-265.725,51.736
6.193,-104.46877,-70.49470,-66.26704,0.22240,0.51444,9.35283,-265.842,-265.957,-265.725,51.736
6.203,-104.47050,-70.49472,-66.26716,0.30477,0.50681,9.35141,-265.842,-265.957,-265.725,51.846
6.213,-104.47221,-70.49474,-66.26728,0.26783,0.44859,9.38657,-265.842,-265.957,-265.725,51.625
6.223,-104.47392,-70.49475,-66.26744,0.21552,0.46606,9.37152,-265.842,-265.957,-265.725,51.736
6.233,-104.47562,-70.49477,-66.26762,0.31071,0.48815,9.38246,-265.842,-265.957,-265.725,51.736
6.243,-104.47733,-70.49478,-66.26784,0.26276,0.46294,9.32499,-265.842,-265.958,-265.725,51.736
6.253,-104.47903,-70.49479,-66.26810,0.24758,0.46677,9.37399,-265.842,-265.958,-265.725,51.736
6.263,-104.48074,-70.49480,-66.26839,0.24464,0.52928,9.36648,-265.842,-265.958,-265.725,51.736
6.273,-104.48239,-70.49480,-66.26871,0.25502,0.49525,9.37308,-265.842,-265.958,-265.725,51.515
6.283,-104.48405,-70.49480,-66.26904,0.23265,0.45808,9.34063,-265.842,-265.958,-265.725,51.736
6.293,-104.48576,-70.49481,-66.26939,0.28415,0.51817,9.36982,-265.842,-265.958,-265.725,51.625
6.303,-104.48744,-70.49482,-66.26977,0.21910,0.45537,9.37600,-265.842,-265.958,-265.725,51.846
6.313,-104.48909,-70.49483,-66.27016,0.26069,0.46883,9.37763,-265.842,-265.958,-265.725,51.846
6.323,-104.49074,-70.49483,-66.27059,0.24457,0.50496,9.32075,-265.842,-265.958,-265.725,51.625
6.333,-104.49237,-70.49483,-66.27103,0.29022,0.52749,9.38386,-265.842,-265.958,-265.725,51.515
6.343,-104.49399,-70.49484,-66.27145,0.25570,0.46458,9.38326,-265.840,-265.958,-265.725,51.625
6.353,-104.49557,-70.49484,-66.27188,0.25167,0.47652,9.41135,-265.840,-265.958,-265.725,51.736
6.363,-104.49715,-70.49485,-66.27228,0.21772,0.44111,9.36198,-265.840,-265.958,-265.725,51.736
6.373,-104.49873,-70.49485,-66.27266,0.23738,0.47902,9.39523,-265.840,-265.958,-265.725,51.515
6.383,-104.50032,-70.49485,-66.27299,0.24407,0.47620,9.32972,-265.840,-265.958,-265.725,51.846
6.393,-104.50193,-70.49486,-66.27329,0.22863,0.47265,9.34941,-265.840,-265.958,-265.724,51.736
6.403,-104.50359,-70.49486,-66.27359,0.22414,0.45952,9.33699,-265.840,-265.958,-265.724,51.846
6.413,-104.50526,-70.49487,-66.27386,0.25746,0.47809,9.40331,-265.840,-265.958,-265.724,51.515
6.423,-104.50692,-70.49487,-66.27415,0.19962,0.50817,9.38739,-265.840,-265.958,-265.724,51.846
6.433,-104.50862,-70.49488,-66.27441,0.24912,0.50028,9.40642,-265.840,-265.958,-265.724,51.846
6.443,-104.51039,-70.49490,-66.27464,0.21853,0.46663,9.42218,-265.840,-265.957,-265.724,51.736
6.453,-104.51218,-70.49492,-66.27483,0.27204,0.49574,9.35261,-265.840,-265.957,-265.724,51.515
6.463,-104.51402,-70.49493,-66.27500,0.22548,0.47536,9.36708,-265.840,-265.957,-265.724,51.736
6.473,-104.51590,-70.49494,-66.27515,0.24836,0.42840,9.37215,-265.840,-265.957,-265.724,51.846
6.483,-104.51782,-70.49496,-66.27532,0.25289,0.51441,9.37098,-265.840,-265.957,-265.724,51.736
6.493,-104.51975,-70.49500,-66.27547,0.24850,0.49170,9.36424,-265.840,-265.957,-265.724,51.736
6.503,-104.52168,-70.49503,-66.27563,0.24938,0.51256,9.40395,-265.840,-265.957,-265.724,51.736
6.513,-104.52361,-70.49508,-66.27579,0.25400,0.48105,9.37756,-265.840,-265.957,-265.724,51.736
6.523,-104.52554,-70.49512,-66.27596,0.22869,0.46011,9.39127,-265.840,-265.957,-265.724,51.625
6.533,-104.52746,-70.49518,-66.27613,0.24895,0.44493,9.37891,-265.840,-265.957,-265.724,51.846
6.543,-104.52936,-70.49524,-66.27629,0.27429,0.49553,9.40286,-265.841,-265.957,-265.724,51.846
6.553,-104.53124,-70.49532,-66.27642,0.27428,0.46394,9.36360,-265.841,-265.957,-265.724,51.736
6.563,-104.53314,-70.49538,-66.27657,0.23695,0.48661,9.36786,-265.841,-265.957,-265.724,51.515
6.573,-104.53505,-70.49545,-66.27668,0.23080,0.48385,9.36625,-265.841,-265.957,-265.724,51.736
6.583,-104.53696,-70.49551,-66.27679,0.22403,0.47215,9.32608,-265.841,-265.957,-265.724,51.736
6.593,-104.53886,-70.49559,-66.27689,0.23709,0.50554,9.40798,-265.841,-265.957,-265.724,51.736
6.603,-104.54075,-70.49568,-66.27700,0.25224,0.50062,9.38350,-265.841,-265.957,-265.724,51.736
6.613,-104.54262,-70.49579,-66.27710,0.26287,0.48191,9.37757,-265.841,-265.957,-265.724,51.736
6.623,-104.54446,-70.49590,-66.27720,0.24853,0.48900,9.35983,-265.841,-265.957,-265.724,51.846
6.633,-104.54630,-70.49603,-66.27728,0.25034,0.49753,9.38351,-265.841,-265.957,-265.724,51.736
6.643,-104.54810,-70.49615,-66.27737,0.22994,0.48967,9.38873,-265.841,-265.958,-265.724,51.736
6.653,-104.54984,-70.49627,-66.27743,0.27542,0.46286,9.38492,-265.841,-265.958,-265.724,51.736
6.663,-104.55153,-70.49639,-66.27749,0.26477,0.48424,9.38279,-265.841,-265.958,-265.724,51.846
6.673,-104.55317,-70.49652,-66.27755,0.24174,0.47094,9.37517,-265.841,-265.958,-265.724,51.846
6.683,-104.55479,-70.49667,-66.27761,0.23510,0.48118,9.35501,-265.841,-265.958,-265.724,51.957
6.693,-104.55639,-70.49682,-66.27766,0.22992,0.49347,9.37465,-265.841,-265.958,-265.724,51.625
6.703,-104.55792,-70.49699,-66.27773,0.22906,0.46428,9.37035,-265.841,-265.958,-265.724,51.736
6.713,-104.55940,-70.49718,-66.27779,0.24925,0.45413,9.37525,-265.841,-265.958,-265.724,51.736
6.723,-104.56084,-70.49737,-66.27784,0.23741,0.47782,9.37915,-265.841,-265.958,-265.724,51.515
6.733,-104.56227,-70.49756,-66.27791,0.24726,0.49936,9.36380,-265.841,-265.958,-265.724,51.736
6.743,-104.56367,-70.49773,-66.27795,0.24585,0.52054,9.38944,-265.842,-265.958,-265.724,51.846
6.753,-104.56504,-70.49793,-66.27800,0.24522,0.54772,9.37002,-265.842,-265.958,-265.724,51.736
6.763,-104.56639,-70.49812,-66.27807,0.23374,0.45860,9.38325,-265.842,-265.958,-265.724,51.736
6.773,-104.56776,-70.49830,-66.27812,0.23372,0.50077,9.36538,-265.842,-265.958,-265.724,51.846
6.783,-104.56912,-70.49848,-66.27819,0.22311,0.47618,9.39159,-265.842,-265.958,-265.724,51.846
6.793,-104.57050,-70.49866,-66.27826,0.24700,0.48935,9.35299,-265.842,-265.958,-265.727,51.625
6.803,-104.57190,-70.49882,-66.27832,0.25258,0.42435,9.41640,-265.842,-265.958,-265.727,51.736
6.813,-104.57325,-70.49896,-66.27839,0.26692,0.46391,9.37685,-265.842,-265.958,-265.727,51.846
6.823,-104.57455,-70.49911,-66.27846,0.26364,0.48343,9.37033,-265.842,-265.958,-265.727,51.736
6.833,-104.57586,-70.49924,-66.27852,0.24973,0.48556,9.35904,-265.842,-265.958,-265.727,51.736
6.843,-104.57716,-70.49938,-66.27859,0.20139,0.49006,9.35692,-265.842,-265.955,-265.727,51.736
6.853,-104.57845,-70.49953,-66.27864,0.24686,0.45913,9.38568,-265.842,-265.955,-265.727,51.515
6.863,-104.57974,-70.49966,-66.27871,0.27473,0.49354,9.37956,-265.842,-265.955,-265.727,51.625
6.873,-104.58103,-70.49979,-66.27879,0.25343,0.53406,9.39502,-265.842,-265.955,-265.727,51.846
6.883,-104.58232,-70.49989,-66.27885,0.25101,0.47103,9.37559,-265.842,-265.955,-265.727,51.736
6.893,-104.58362,-70.50000,-66.27892,0.26955,0.50358,9.41609,-265.842,-265.955,-265.727,51.515
6.903,-104.58492,-70.50010,-66.27898,0.29363,0.53404,9.38143,-265.842,-265.955,-265.727,51.736
6.913,-104.58619,-70.50021,-66.27902,0.28422,0.51090,9.37588,-265.842,-265.955,-265.727,51.846
6.923,-104.58746,-70.50033,-66.27907,0.27278,0.49732,9.36466,-265.842,-265.955,-265.727,51.515
6.933,-104.58871,-70.50043,-66.27911,0.24779,0.48706,9.35541,-265.842,-265.955,-265.727,51.846
6.943,-104.59000,-70.50053,-66.27915,0.24045,0.48323,9.38114,-265.842,-265.955,-265.727,51.515
6.953,-104.59131,-70.50063,-66.27918,0.23663,0.44210,9.37287,-265.840,-265.955,-265.727,51.515
6.963,-104.59261,-70.50072,-66.27922,0.22885,0.48802,9.35497,-265.840,-265.955,-265.727,51.736
6.973,-104.59394,-70.50079,-66.27925,0.26626,0.49454,9.35622,-265.840,-265.955,-265.727,51.736
6.983,-104.59534,-70.50086,-66.27929,0.25606,0.50828,9.36338,-265.840,-265.955,-265.727,51.515
6.993,-104.59676,-70.50092,-66.27932,0.26565,0.47352,9.38646,-265.840,-265.955,-265.724,51.736
7.003,-104.59819,-70.50098,-66.27934,0.24121,0.48776,9.35459,-265.840,-265.955,-265.724,51.625
7.013,-104.59967,-70.50105,-66.27936,0.25542,0.44894,9.41710,-265.840,-265.955,-265.724,51.515
7.023,-104.60116,-70.50111,-66.27938,0.23739,0.48163,9.37190,-265.840,-265.955,-265.724,51.625
7.033,-104.60265,-70.50118,-66.27940,0.27801,0.50975,9.39799,-265.840,-265.955,-265.724,51.846
7.043,-104.60416,-70.50127,-66.27943,0.20061,0.45283,9.35949,-265.840,-265.955,-265.724,51.625
7.053,-104.60568,-70.50133,-66.27944,0.26517,0.48686,9.35705,-265.840,-265.957,-265.724,51.846
7.063,-104.60725,-70.50139,-66.27946,0.24345,0.52631,9.40428,-265.840,-265.957,-265.724,51.846
7.073,-104.60880,-70.50146,-66.27946,0.28632,0.49441,9.37475,-265.840,-265.957,-265.724,51.736
7.083,-104.61038,-70.50153,-66.27948,0.24710,0.50268,9.44540,-265.840,-265.957,-265.724,51.736
7.093,-104.61202,-70.50160,-66.27949,0.25156,0.48425,9.42981,-265.840,-265.957,-265.724,51.736
7.103,-104.61365,-70.50167,-66.27950,0.25864,0.48899,9.32246,-265.840,-265.957,-265.724,51.625
7.113,-104.61523,-70.50174,-66.27952,0.28269,0.47060,9.38088,-265.840,-265.957,-265.724,51.846
7.123,-104.61676,-70.50181,-66.27952,0.26164,0.48617,9.39645,-265.840,-265.957,-265.724,51.846
7.133,-104.61829,-70.50188,-66.27953,0.28470,0.46030,9.39540,-265.840,-265.957,-265.724,51.736
7.143,-104.61979,-70.50197,-66.27954,0.26441,0.51240,9.43051,-265.840,-265.957,-265.724,51.736
7.153,-104.62131,-70.50208,-66.27955,0.27263,0.51229,9.36741,-265.841,-265.957,-265.724,51.515
7.163,-104.62285,-70.50218,-66.27956,0.20261,0.48318,9.36298,-265.841,-265.957,-265.724,51.515
7.173,-104.62439,-70.50227,-66.27956,0.26668,0.44555,9.40025,-265.841,-265.957,-265.724,51.846
7.183,-104.62595,-70.50238,-66.27956,0.23534,0.45814,9.35149,-265.841,-265.957,-265.724,51.846
7.193,-104.62749,-70.50251,-66.27956,0.23440,0.50623,9.39189,-265.841,-265.957,-265.724,51.846
7.203,-104.62904,-70.50266,-66.27957,0.27348,0.50651,9.35578,-265.841,-265.957,-265.725,51.736
7.213,-104.63058,-70.50284,-66.27959,0.23689,0.45551,9.36517,-265.841,-265.957,-265.725,51.515
7.223,-104.63210,-70.50303,-66.27959,0.22297,0.49415,9.36860,-265.841,-265.957,-265.725,51.736
7.233,-104.63354,-70.50323,-66.27962,0.21557,0.45844,9.38965,-265.841,-265.957,-265.725,51.846
7.243,-104.63492,-70.50344,-66.27961,0.21745,0.46421,9.38641,-265.841,-265.957,-265.725,51.846
7.253,-104.63628,-70.50365,-66.27962,0.25228,0.49678,9.38151,-265.841,-265.955,-265.725,51.846
7.263,-104.63757,-70.50385,-66.27962,0.26627,0.49716,9.33209,-265.841,-265.955,-265.725,51.736
7.273,-104.63879,-70.50406,-66.27962,0.20863,0.49446,9.39350,-265.841,-265.955,-265.725,51.625
7.283,-104.63994,-70.50427,-66.27963,0.30791,0.49809,9.37598,-265.841,-265.955,-265.725,51.736
7.293,-104.64103,-70.50449,-66.27966,0.23406,0.46362,9.39046,-265.841,-265.955,-265.725,51.625
7.303,-104.64210,-70.50474,-66.27966,0.23501,0.48623,9.37630,-265.841,-265.955,-265.725,51.736
7.313,-104.64314,-70.50499,-66.27967,0.21983,0.53898,9.35514,-265.841,-265.955,-265.725,51.736
7.323,-104.64418,-70.50525,-66.27969,0.27369,0.48389,9.36472,-265.841,-265.955,-265.725,51.736
7.333,-104.64523,-70.50552,-66.27970,0.29851,0.54339,9.41075,-265.841,-265.955,-265.725,51.736
7.343,-104.64623,-70.50581,-66.27971,0.25025,0.50637,9.38790,-265.841,-265.955,-265.725,51.957
7.353,-104.64721,-70.50614,-66.27972,0.22363,0.46126,9.40493,-265.840,-265.955,-265.725,51.736
7.363,-104.64822,-70.50648,-66.27972,0.25529,0.42474,9.41077,-265.840,-265.955,-265.725,51.846
7.373,-104.64931,-70.50687,-66.27972,0.28972,0.50137,9.37794,-265.840,-265.955,-265.725,51.515
7.383,-104.65047,-70.50726,-66.27974,0.24748,0.47450,9.38964,-265.840,-265.955,-265.725,51.846
7.393,-104.65167,-70.50771,-66.27975,0.27214,0.48087,9.38483,-265.840,-265.955,-265.725,51.846
7.403,-104.65290,-70.50821,-66.27977,0.25084,0.51764,9.42926,-265.840,-265.955,-265.724,51.625
7.413,-104.65419,-70.50868,-66.27976,0.20412,0.48214,9.39395,-265.840,-265.955,-265.724,51.846
7.423,-104.65553,-70.50916,-66.27977,0.23163,0.47811,9.36788,-265.840,-265.955,-265.724,51.736
7.433,-104.65690,-70.50965,-66.27976,0.25482,0.47833,9.36390,-265.840,-265.955,-265.724,51.736
7.443,-104.65830,-70.51019,-66.27978,0.25263,0.46075,9.39734,-265.840,-265.955,-265.724,51.515
7.453,-104.65973,-70.51072,-66.27979,0.22690,0.48690,9.37025,-265.840,-265.957,-265.724,51.736
7.463,-104.66115,-70.51130,-66.27979,0.24114,0.45480,9.37162,-265.840,-265.957,-265.724,51.625
7.473,-104.66258,-70.51190,-66.27979,0.26479,0.47593,9.42585,-265.840,-265.957,-265.724,51.736
7.483,-104.66402,-70.51256,-66.27980,0.20354,0.46708,9.36506,-265.840,-265.957,-265.724,51.736
7.493,-104.66547,-70.51325,-66.27979,0.25667,0.52064,9.38785,-265.840,-265.957,-265.724,51.625
7.503,-104.66685,-70.51395,-66.27980,0.21733,0.47460,9.39561,-265.840,-265.957,-265.724,51.625
7.513,-104.66811,-70.51471,-66.27979,0.26745,0.45197,9.36444,-265.840,-265.957,-265.724,51.736
7.523,-104.66930,-70.51550,-66.27980,0.23732,0.45054,9.37163,-265.840,-265.957,-265.724,51.736
7.533,-104.67045,-70.51632,-66.27980,0.28415,0.48395,9.34826,-265.840,-265.957,-265.724,51.625
7.543,-104.67152,-70.51721,-66.27982,0.21971,0.46546,9.41294,-265.840,-265.957,-265.724,51.846
7.553,-104.67252,-70.51819,-66.27981,0.25744,0.47889,9.41376,-265.842,-265.957,-265.724,51.625
7.563,-104.67348,-70.51919,-66.27982,0.24025,0.43207,9.34558,-265.842,-265.957,-265.724,51.515
7.573,-104.67435,-70.52017,-66.27982,0.25389,0.52677,9.39345,-265.842,-265.957,-265.724,51.736
7.583,-104.67512,-70.52119,-66.27982,0.23490,0.53837,9.35597,-265.842,-265.957,-265.724,51.736
7.593,-104.67584,-70.52219,-66.27982,0.24715,0.46911,9.38765,-265.842,-265.957,-265.724,51.736
7.603,-104.67653,-70.52314,-66.27982,0.24483,0.46946,9.38443,-265.842,-265.957,-265.725,51.736
7.613,-104.67719,-70.52404,-66.27983,0.23904,0.51153,9.35248,-265.842,-265.957,-265.725,51.736
7.623,-104.67780,-70.52489,-66.27985,0.30635,0.46953,9.32866,-265.842,-265.957,-265.725,51.736
7.683,-104.68146,-70.52945,-66.27989,0.21682,0.48951,9.38027,-265.842,-265.955,-265.725,51.846
7.693,-104.68202,-70.53019,-66.27990,0.26579,0.50146,9.36061,-265.842,-265.955,-265.725,51.625
7.703,-104.68256,-70.53097,-66.27991,0.25048,0.48108,9.40007,-265.842,-265.955,-265.725,51.736
7.713,-104.68307,-70.53181,-66.27991,0.26562,0.51420,9.38709,-265.842,-265.955,-265.725,51.625
7.723,-104.68356,-70.53272,-66.27993,0.19184,0.51346,9.38374,-265.842,-265.955,-265.725,51.515
7.733,-104.68403,-70.53373,-66.27995,0.23805,0.45967,9.33903,-265.842,-265.955,-265.725,51.515
7.743,-104.68449,-70.53486,-66.27996,0.23376,0.45781,9.37561,-265.842,-265.955,-265.725,51.515
7.753,-104.68493,-70.53608,-66.27996,0.25553,0.48673,9.34698,-265.839,-265.955,-265.725,51.846
7.763,-104.68534,-70.53741,-66.27997,0.22365,0.46272,9.38160,-265.839,-265.955,-265.725,51.625
7.773,-104.68580,-70.53883,-66.27998,0.22621,0.47320,9.41051,-265.839,-265.955,-265.725,51.846
7.783,-104.68626,-70.54037,-66.28001,0.26368,0.47659,9.39247,-265.839,-265.955,-265.725,51.846
7.793,-104.68675,-70.54199,-66.28004,0.24796,0.46679,9.37882,-265.839,-265.955,-265.725,51.736
7.803,-104.68727,-70.54367,-66.28008,0.27065,0.47172,9.40939,-265.839,-265.955,-265.726,51.736
7.813,-104.68782,-70.54540,-66.28013,0.22187,0.48048,9.42132,-265.839,-265.955,-265.726,51.846
7.823,-104.68838,-70.54718,-66.28019,0.24038,0.48786,9.39037,-265.839,-265.955,-265.726,51.846
7.833,-104.68896,-70.54897,-66.28025,0.23101,0.47030,9.32490,-265.839,-265.955,-265.726,51.736
7.843,-104.68954,-70.55077,-66.28032,0.24082,0.48438,9.37953,-265.839,-265.955,-265.726,51.736
7.853,-104.69013,-70.55260,-66.28043,0.26708,0.48956,9.35503,-265.839,-265.955,-265.726,51.846
7.863,-104.69073,-70.55444,-66.28053,0.21266,0.48516,9.35053,-265.839,-265.955,-265.726,51.846
7.873,-104.69135,-70.55627,-66.28065,0.29229,0.47871,9.36438,-265.839,-265.955,-265.726,51.736
7.883,-104.69200,-70.55812,-66.28078,0.26872,0.51611,9.37221,-265.839,-265.955,-265.726,51.846
7.893,-104.69267,-70.55997,-66.28091,0.25452,0.51127,9.34286,-265.839,-265.955,-265.726,51.846
7.903,-104.69333,-70.56180,-66.28105,0.25182,0.50295,9.39234,-265.839,-265.955,-265.726,51.625
7.913,-104.69394,-70.56365,-66.28115,0.26655,0.49885,9.38434,-265.839,-265.955,-265.726,51.846
7.923,-104.69453,-70.56549,-66.28125,0.27505,0.46697,9.34791,-265.839,-265.955,-265.726,51.846
7.933,-104.69509,-70.56725,-66.28134,0.24623,0.48895,9.34977,-265.839,-265.955,-265.726,51.625
7.943,-104.69563,-70.56893,-66.28144,0.26952,0.47166,9.39572,-265.839,-265.955,-265.726,51.846
7.953,-104.69613,-70.57055,-66.28152,0.21076,0.52194,9.33589,-265.842,-265.955,-265.726,51.625
7.963,-104.69661,-70.57214,-66.28159,0.25216,0.50945,9.38186,-265.842,-265.955,-265.726,51.515
7.973,-104.69709,-70.57365,-66.28165,0.27881,0.51385,9.35294,-265.842,-265.955,-265.726,51.846
7.983,-104.69756,-70.57511,-66.28168,0.21026,0.57183,9.33487,-265.842,-265.955,-265.726,51.736
7.993,-104.69801,-70.57649,-66.28169,0.23197,0.48348,9.36505,-265.842,-265.955,-265.726,51.846
8.003,-104.69846,-70.57785,-66.28171,0.26885,0.49627,9.41250,-265.842,-265.955,-265.724,51.515
8.013,-104.69884,-70.57914,-66.28172,0.23542,0.48582,9.36504,-265.842,-265.955,-265.724,51.736
8.023,-104.69922,-70.58031,-66.28173,0.22094,0.46610,9.36590,-265.842,-265.955,-265.724,51.736
8.033,-104.69957,-70.58138,-66.28173,0.24850,0.52217,9.41356,-265.842,-265.955,-265.724,51.625
8.043,-104.69992,-70.58231,-66.28174,0.24321,0.48088,9.35744,-265.842,-265.955,-265.724,51.736
8.053,-104.70029,-70.58317,-66.28175,0.29408,0.45417,9.36891,-265.842,-265.957,-265.724,51.736
8.063,-104.70065,-70.58398,-66.28175,0.28016,0.49242,9.37193,-265.842,-265.957,-265.724,51.846
8.073,-104.70102,-70.58480,-66.28176,0.25791,0.44338,9.34436,-265.842,-265.957,-265.724,51.625
8.083,-104.70137,-70.58560,-66.28176,0.27761,0.47856,9.36314,-265.842,-265.957,-265.724,51.625
8.093,-104.70173,-70.58636,-66.28177,0.26908,0.47553,9.40495,-265.842,-265.957,-265.724,51.736
8.103,-104.70212,-70.58707,-66.28178,0.23281,0.47658,9.36628,-265.842,-265.957,-265.724,51.736
8.113,-104.70250,-70.58772,-66.28180,0.26026,0.51105,9.37945,-265.842,-265.957,-265.724,51.846
8.123,-104.70290,-70.58835,-66.28182,0.23999,0.53566,9.33227,-265.842,-265.957,-265.724,51.846
8.133,-104.70337,-70.58891,-66.28185,0.24337,0.50165,9.37021,-265.842,-265.957,-265.724,51.846
8.143,-104.70389,-70.58940,-66.28187,0.28966,0.47251,9.35394,-265.842,-265.957,-265.724,51.846
8.153,-104.70444,-70.58985,-66.28190,0.26459,0.43155,9.34603,-265.840,-265.957,-265.724,51.736
8.163,-104.70502,-70.59032,-66.28193,0.27710,0.49046,9.36671,-265.840,-265.957,-265.724,51.846
8.173,-104.70561,-70.59077,-66.28196,0.30937,0.47270,9.35197,-265.840,-265.957,-265.724,51.736
8.183,-104.70625,-70.59117,-66.28201,0.25848,0.49794,9.36262,-265.840,-265.957,-265.724,51.846
8.193,-104.70692,-70.59157,-66.28207,0.25435,0.45027,9.34995,-265.840,-265.957,-265.724,51.515
8.203,-104.70762,-70.59193,-66.28214,0.28388,0.43405,9.34767,-265.840,-265.957,-265.725,51.736
8.213,-104.70834,-70.59225,-66.28221,0.29409,0.52072,9.41928,-265.840,-265.957,-265.725,51.846
8.223,-104.70908,-70.59256,-66.28227,0.22866,0.49778,9.41081,-265.840,-265.957,-265.725,51.736
8.233,-104.70978,-70.59288,-66.28235,0.28374,0.52198,9.36216,-265.840,-265.957,-265.725,51.625
8.243,-104.71051,-70.59318,-66.28242,0.29780,0.46651,9.37529,-265.840,-265.957,-265.725,51.846
8.253,-104.71125,-70.59344,-66.28249,0.23112,0.49378,9.34852,-265.840,-265.955,-265.725,51.625
8.263,-104.71200,-70.59367,-66.28255,0.27729,0.43818,9.33919,-265.840,-265.955,-265.725,51.846
8.273,-104.71273,-70.59389,-66.28262,0.22394,0.47873,9.34254,-265.840,-265.955,-265.725,51.736
8.283,-104.71344,-70.59412,-66.28268,0.28694,0.50901,9.37710,-265.840,-265.955,-265.725,51.625
8.293,-104.71418,-70.59434,-66.28273,0.28482,0.44953,9.38580,-265.840,-265.955,-265.725,51.736
8.303,-104.71499,-70.59457,-66.28277,0.23567,0.49549,9.38872,-265.840,-265.955,-265.725,51.736
8.313,-104.71581,-70.59479,-66.28281,0.30140,0.49417,9.37036,-265.840,-265.955,-265.725,51.846
8.323,-104.71667,-70.59499,-66.28284,0.25499,0.49869,9.36945,-265.840,-265.955,-265.725,51.736
8.333,-104.71755,-70.59521,-66.28287,0.28136,0.49009,9.35868,-265.840,-265.955,-265.725,51.846
8.343,-104.71848,-70.59541,-66.28290,0.24703,0.52238,9.36048,-265.840,-265.955,-265.725,51.515
8.353,-104.71941,-70.59560,-66.28293,0.24825,0.47637,9.37355,-265.840,-265.955,-265.725,51.736
8.363,-104.72034,-70.59579,-66.28294,0.25771,0.42797,9.32633,-265.841,-265.955,-265.725,51.736
8.373,-104.72125,-70.59597,-66.28297,0.28021,0.49308,9.33333,-265.841,-265.955,-265.725,51.736
8.383,-104.72216,-70.59619,-66.28300,0.29699,0.43272,9.37383,-265.841,-265.955,-265.725,51.736
8.393,-104.72301,-70.59641,-66.28304,0.28273,0.50437,9.37953,-265.841,-265.955,-265.725,51.736
8.403,-104.72384,-70.59662,-66.28307,0.29321,0.50288,9.35824,-265.841,-265.955,-265.725,51.515
8.413,-104.72466,-70.59682,-66.28309,0.24407,0.47207,9.36029,-265.841,-265.955,-265.724,51.846
8.423,-104.72546,-70.59702,-66.28312,0.25287,0.48362,9.34136,-265.841,-265.955,-265.724,51.625
8.433,-104.72620,-70.59723,-66.28315,0.23021,0.46695,9.36270,-265.841,-265.955,-265.724,51.736
8.443,-104.72692,-70.59746,-66.28318,0.24328,0.51046,9.36656,-265.841,-265.955,-265.724,51.515
8.453,-104.72758,-70.59772,-66.28320,0.25401,0.48366,9.35222,-265.841,-265.955,-265.724,51.846
8.463,-104.72819,-70.59800,-66.28322,0.26521,0.44389,9.36488,-265.841,-265.957,-265.724,51.625
8.473,-104.72876,-70.59830,-66.28326,0.22696,0.48378,9.35378,-265.841,-265.957,-265.724,51.515
8.483,-104.72934,-70.59863,-66.28329,0.22743,0.47271,9.37353,-265.841,-265.957,-265.724,51.736
8.493,-104.72992,-70.59901,-66.28330,0.25682,0.47407,9.34503,-265.841,-265.957,-265.724,51.736
8.503,-104.73050,-70.59939,-66.28332,0.29941,0.49951,9.36752,-265.841,-265.957,-265.724,51.736
8.513,-104.73108,-70.59976,-66.28334,0.25166,0.48557,9.35703,-265.841,-265.957,-265.724,51.736
8.523,-104.73166,-70.60014,-66.28335,0.24990,0.47169,9.34101,-265.841,-265.957,-265.724,51.846
8.533,-104.73222,-70.60054,-66.28336,0.26244,0.49140,9.34416,-265.841,-265.957,-265.724,51.736
8.543,-104.73279,-70.60096,-66.28337,0.21820,0.46350,9.40491,-265.841,-265.957,-265.724,51.515
8.553,-104.73334,-70.60140,-66.28338,0.24407,0.47394,9.34461,-265.841,-265.957,-265.724,51.846
8.563,-104.73384,-70.60188,-66.28339,0.25827,0.51301,9.39874,-265.841,-265.957,-265.724,51.846
8.573,-104.73434,-70.60234,-66.28339,0.23010,0.47958,9.35179,-265.841,-265.957,-265.724,51.736
8.583,-104.73482,-70.60281,-66.28340,0.19618,0.47495,9.32883,-265.841,-265.957,-265.724,51.736
8.593,-104.73528,-70.60328,-66.28339,0.19344,0.51149,9.36365,-265.841,-265.957,-265.724,51.625
8.603,-104.73576,-70.60374,-66.28339,0.26359,0.49369,9.33853,-265.841,-265.957,-265.724,51.736
8.613,-104.73621,-70.60419,-66.28339,0.26139,0.47537,9.37720,-265.841,-265.957,-265.724,51.846
8.623,-104.73666,-70.60464,-66.28339,0.27246,0.49268,9.35664,-265.841,-265.957,-265.724,51.515
8.633,-104.73711,-70.60510,-66.28340,0.26168,0.45261,9.33950,-265.841,-265.957,-265.724,51.846
8.643,-104.73756,-70.60561,-66.28341,0.26330,0.48635,9.32328,-265.841,-265.957,-265.724,51.736
#2025/08/25 18:31:55
