#2025/09/02 11:20:40
time,wx,wy,wz,ax,ay,az,Tx,Ty,Tz,TAcc,pitch,roll,yaw
0.023,-0.00288,-0.00675,-0.00366,0.03389,-0.03089,0.97293,43.458,43.939,42.568,45.327,-1.92201,-1.99717,-0.00000
0.033,-0.00288,-0.00665,-0.00365,0.03015,-0.03350,0.96970,43.458,43.937,42.568,45.327,-1.92262,-1.99482,-0.00000
0.043,-0.00285,-0.00648,-0.00365,0.02804,-0.03299,0.97480,43.458,43.937,42.568,44.995,-1.92278,-1.99105,-0.00000
0.053,-0.00287,-0.00645,-0.00365,0.03108,-0.03155,0.96556,43.458,43.937,42.568,45.106,-1.92222,-1.98945,-0.00000
0.063,-0.00288,-0.00646,-0.00365,0.03077,-0.03077,0.97016,43.458,43.937,42.568,44.995,-1.92106,-1.98758,-0.00000
0.073,-0.00293,-0.00648,-0.00365,0.03065,-0.03190,0.96892,43.458,43.937,42.568,45.216,-1.92067,-1.98567,-0.00000
0.083,-0.00299,-0.00654,-0.00363,0.03069,-0.03143,0.97028,43.458,43.937,42.568,45.106,-1.91995,-1.98379,-0.00000
0.093,-0.00298,-0.00652,-0.00362,0.03627,-0.03413,0.96993,43.458,43.937,42.568,45.106,-1.92097,-1.98550,-0.00000
0.103,-0.00295,-0.00648,-0.00358,0.03413,-0.03662,0.96677,43.458,43.937,42.568,45.327,-1.92365,-1.98589,-0.00000
0.113,-0.00298,-0.00648,-0.00355,0.03171,-0.03732,0.97048,43.458,43.937,42.568,45.216,-1.92666,-1.98465,-0.00000
0.123,-0.00298,-0.00648,-0.00354,0.03420,-0.03108,0.97126,43.458,43.937,42.568,45.216,-1.92563,-1.98499,-0.00000
0.133,-0.00295,-0.00645,-0.00352,0.03627,-0.03303,0.96989,43.459,43.937,42.568,44.995,-1.92589,-1.98669,-0.00000
0.143,-0.00298,-0.00644,-0.00350,0.03428,-0.03658,0.96763,43.459,43.937,42.568,45.216,-1.92847,-1.98715,-0.00000
0.153,-0.00302,-0.00645,-0.00348,0.03221,-0.03483,0.97001,43.459,43.937,42.568,44.995,-1.92984,-1.98623,-0.00000
0.163,-0.00304,-0.00651,-0.00347,0.03163,-0.03580,0.96806,43.459,43.937,42.568,44.995,-1.93187,-1.98498,-0.00000
0.173,-0.00304,-0.00655,-0.00346,0.03159,-0.03650,0.96615,43.459,43.937,42.568,44.995,-1.93438,-1.98377,-0.00000
0.183,-0.00303,-0.00651,-0.00345,0.03510,-0.03260,0.96903,43.459,43.937,42.570,45.216,-1.93428,-1.98475,-0.00000
0.193,-0.00305,-0.00647,-0.00342,0.02898,-0.03397,0.97016,43.459,43.937,42.570,45.216,-1.93505,-1.98178,-0.00000
0.203,-0.00303,-0.00643,-0.00341,0.03101,-0.03366,0.96942,43.459,43.937,42.570,44.995,-1.93561,-1.98015,-0.00000
0.213,-0.00304,-0.00643,-0.00340,0.03420,-0.03440,0.97122,43.459,43.937,42.570,45.106,-1.93661,-1.98055,-0.00000
0.223,-0.00303,-0.00648,-0.00338,0.03147,-0.03155,0.97235,43.459,43.937,42.570,45.327,-1.93575,-1.97917,-0.00000
0.233,-0.00309,-0.00649,-0.00336,0.03284,-0.03545,0.97126,43.459,43.953,42.570,45.106,-1.93741,-1.97871,-0.00000
0.243,-0.00307,-0.00647,-0.00334,0.03218,-0.03643,0.97504,43.459,43.953,42.570,45.216,-1.93959,-1.97775,-0.00000
0.253,-0.00306,-0.00644,-0.00332,0.03471,-0.03448,0.96958,43.459,43.953,42.570,44.995,-1.94063,-1.97853,-0.00000
0.263,-0.00308,-0.00644,-0.00332,0.03338,-0.03459,0.96942,43.459,43.953,42.570,44.995,-1.94174,-1.97847,-0.00000
0.273,-0.00302,-0.00650,-0.00333,0.03522,-0.03085,0.96899,43.459,43.953,42.570,45.106,-1.94044,-1.97958,-0.00000
0.283,-0.00299,-0.00653,-0.00335,0.03034,-0.03315,0.96868,43.459,43.953,42.570,45.216,-1.94064,-1.97757,-0.00000
0.293,-0.00296,-0.00652,-0.00333,0.04052,-0.03128,0.96782,43.459,43.953,42.570,44.995,-1.93965,-1.98213,-0.00000
0.303,-0.00297,-0.00648,-0.00331,0.03565,-0.03284,0.96903,43.459,43.953,42.570,45.327,-1.93965,-1.98348,-0.00000
0.313,-0.00296,-0.00646,-0.00328,0.02839,-0.03533,0.96782,43.459,43.953,42.570,44.995,-1.94128,-1.98019,-0.00000
0.323,-0.00293,-0.00649,-0.00325,0.03288,-0.03662,0.96958,43.459,43.953,42.570,44.995,-1.94368,-1.97978,-0.00000
0.333,-0.00292,-0.00657,-0.00322,0.02948,-0.03338,0.97102,43.449,43.953,42.570,44.995,-1.94394,-1.97717,-0.00000
0.343,-0.00287,-0.00657,-0.00319,0.03245,-0.03370,0.96934,43.449,43.953,42.570,44.995,-1.94444,-1.97651,-0.00000
0.353,-0.00281,-0.00653,-0.00320,0.03264,-0.03338,0.96981,43.449,43.953,42.570,45.216,-1.94472,-1.97599,-0.00000
0.363,-0.00275,-0.00652,-0.00322,0.03331,-0.03545,0.96931,43.449,43.953,42.570,45.106,-1.94633,-1.97590,-0.00000
0.373,-0.00270,-0.00657,-0.00322,0.03249,-0.03221,0.97211,43.449,43.953,42.570,45.106,-1.94580,-1.97523,-0.00000
0.383,-0.00267,-0.00671,-0.00325,0.03292,-0.03471,0.96841,43.449,43.953,42.512,45.216,-1.94694,-1.97492,-0.00000
0.393,-0.00268,-0.00676,-0.00326,0.02808,-0.03615,0.96923,43.449,43.953,42.512,45.106,-1.94899,-1.97149,-0.00000
0.403,-0.00271,-0.00672,-0.00325,0.03448,-0.02894,0.96779,43.449,43.953,42.512,45.106,-1.94641,-1.97224,-0.00000
0.413,-0.00272,-0.00667,-0.00324,0.02668,-0.03284,0.97052,43.449,43.953,42.512,44.995,-1.94631,-1.96792,-0.00000
0.423,-0.00272,-0.00665,-0.00325,0.02859,-0.03350,0.97126,43.449,43.953,42.512,45.106,-1.94662,-1.96486,-0.00000
0.433,-0.00270,-0.00662,-0.00325,0.02882,-0.03498,0.96732,43.449,43.935,42.512,45.216,-1.94796,-1.96206,-0.00000
0.443,-0.00269,-0.00662,-0.00325,0.03151,-0.03280,0.96802,43.449,43.935,42.512,45.327,-1.94787,-1.96100,-0.00000
0.453,-0.00271,-0.00655,-0.00324,0.03436,-0.03572,0.96782,43.449,43.935,42.512,45.327,-1.94966,-1.96179,-0.00000
0.463,-0.00271,-0.00648,-0.00325,0.02816,-0.03327,0.97055,43.449,43.935,42.512,45.216,-1.94980,-1.95853,-0.00000
0.473,-0.00271,-0.00643,-0.00324,0.03541,-0.03424,0.96782,43.449,43.935,42.512,45.106,-1.95061,-1.96002,-0.00000
0.483,-0.00275,-0.00642,-0.00325,0.03526,-0.03338,0.96790,43.449,43.935,42.512,45.216,-1.95087,-1.96138,-0.00000
0.493,-0.00278,-0.00648,-0.00327,0.03428,-0.03428,0.96439,43.449,43.935,42.512,45.106,-1.95177,-1.96219,-0.00000
0.503,-0.00282,-0.00650,-0.00329,0.03101,-0.03167,0.96880,43.449,43.935,42.512,45.216,-1.95090,-1.96079,-0.00000
0.513,-0.00284,-0.00640,-0.00332,0.03046,-0.03639,0.96989,43.449,43.935,42.512,45.216,-1.95303,-1.95903,-0.00000
0.523,-0.00279,-0.00635,-0.00337,0.03725,-0.03580,0.96743,43.449,43.935,42.512,45.216,-1.95482,-1.96170,-0.00000
0.533,-0.00275,-0.00632,-0.00340,0.02991,-0.03253,0.97449,43.458,43.935,42.512,45.216,-1.95434,-1.95949,-0.00000
0.543,-0.00272,-0.00632,-0.00341,0.03272,-0.03861,0.97161,43.458,43.935,42.512,45.216,-1.95782,-1.95916,-0.00000
0.553,-0.00274,-0.00635,-0.00340,0.03058,-0.03432,0.96864,43.458,43.935,42.512,45.106,-1.95858,-1.95752,-0.00000
0.563,-0.00273,-0.00638,-0.00340,0.03338,-0.02976,0.97106,43.458,43.935,42.512,44.995,-1.95636,-1.95764,-0.00000
0.573,-0.00269,-0.00641,-0.00341,0.03120,-0.03631,0.97239,43.458,43.935,42.512,45.216,-1.95833,-1.95634,-0.00000
0.583,-0.00269,-0.00642,-0.00345,0.03526,-0.02878,0.96767,43.458,43.935,42.565,45.216,-1.95555,-1.95775,-0.00000
0.593,-0.00270,-0.00644,-0.00352,0.03373,-0.03366,0.96782,43.458,43.935,42.565,45.106,-1.95593,-1.95817,-0.00000
0.603,-0.00270,-0.00652,-0.00358,0.03011,-0.03342,0.97133,43.458,43.935,42.565,44.995,-1.95608,-1.95619,-0.00000
0.613,-0.00272,-0.00658,-0.00359,0.02902,-0.03557,0.97016,43.458,43.935,42.565,45.106,-1.95763,-1.95355,-0.00000
0.623,-0.00272,-0.00657,-0.00357,0.03085,-0.03623,0.97005,43.458,43.935,42.565,45.216,-1.95958,-1.95212,-0.00000
0.633,-0.00271,-0.00653,-0.00356,0.03276,-0.03081,0.96837,43.458,43.929,42.565,45.216,-1.95808,-1.95196,-0.00000
0.643,-0.00269,-0.00652,-0.00355,0.02753,-0.03268,0.96974,43.458,43.929,42.565,45.106,-1.95777,-1.94843,-0.00000
0.653,-0.00275,-0.00654,-0.00353,0.03249,-0.03545,0.97126,43.458,43.929,42.565,44.995,-1.95920,-1.94807,-0.00000
0.663,-0.00274,-0.00659,-0.00350,0.02843,-0.02995,0.97172,43.458,43.929,42.565,45.216,-1.95709,-1.94512,-0.00000
0.673,-0.00272,-0.00659,-0.00348,0.03483,-0.02976,0.97024,43.458,43.929,42.565,44.995,-1.95490,-1.94632,-0.00000
0.683,-0.00272,-0.00656,-0.00347,0.03545,-0.02960,0.97266,43.458,43.929,42.565,45.216,-1.95259,-1.94785,-0.00000
0.693,-0.00272,-0.00656,-0.00348,0.03358,-0.03775,0.96954,43.458,43.929,42.565,45.106,-1.95559,-1.94824,-0.00000
0.703,-0.00279,-0.00656,-0.00348,0.02905,-0.03693,0.96806,43.458,43.929,42.565,44.995,-1.95806,-1.94575,-0.00000
0.713,-0.00282,-0.00655,-0.00346,0.03346,-0.03276,0.97094,43.458,43.929,42.565,45.216,-1.95777,-1.94605,-0.00000
0.723,-0.00278,-0.00656,-0.00341,0.03167,-0.03007,0.97278,43.458,43.929,42.565,45.327,-1.95573,-1.94517,-0.00000
0.733,-0.00279,-0.00650,-0.00335,0.02956,-0.03171,0.96876,43.456,43.929,42.565,44.995,-1.95484,-1.94303,-0.00000
0.743,-0.00278,-0.00643,-0.00332,0.03518,-0.03101,0.97036,43.456,43.929,42.565,45.216,-1.95347,-1.94447,-0.00000
0.753,-0.00276,-0.00639,-0.00330,0.03436,-0.03331,0.97133,43.456,43.929,42.565,45.216,-1.95357,-1.94536,-0.00000
0.763,-0.00272,-0.00646,-0.00330,0.03436,-0.03416,0.97079,43.456,43.929,42.565,44.885,-1.95423,-1.94624,-0.00000
0.773,-0.00272,-0.00655,-0.00328,0.03678,-0.03393,0.96697,43.456,43.929,42.565,45.327,-1.95482,-1.94876,-0.00000
0.783,-0.00268,-0.00658,-0.00327,0.03725,-0.03728,0.96966,43.456,43.929,42.536,45.216,-1.95748,-1.95148,-0.00000
0.793,-0.00268,-0.00656,-0.00328,0.02987,-0.03381,0.97395,43.456,43.929,42.536,44.995,-1.95781,-1.94937,-0.00000
0.803,-0.00272,-0.00658,-0.00332,0.03541,-0.03611,0.97114,43.456,43.929,42.536,45.216,-1.95966,-1.95088,-0.00000
0.813,-0.00275,-0.00665,-0.00335,0.03210,-0.02956,0.97200,43.456,43.929,42.536,45.216,-1.95728,-1.95023,-0.00000
0.823,-0.00276,-0.00673,-0.00335,0.03233,-0.03202,0.96751,43.456,43.929,42.536,45.106,-1.95660,-1.94984,-0.00000
0.833,-0.00275,-0.00680,-0.00334,0.02839,-0.03073,0.97028,43.456,43.903,42.536,45.106,-1.95505,-1.94687,-0.00000
0.843,-0.00276,-0.00685,-0.00335,0.03732,-0.03276,0.96907,43.456,43.903,42.536,45.106,-1.95483,-1.94968,-0.00000
0.853,-0.00281,-0.00687,-0.00336,0.03046,-0.03303,0.97048,43.456,43.903,42.536,45.106,-1.95476,-1.94803,-0.00000
0.863,-0.00282,-0.00688,-0.00340,0.03280,-0.03116,0.96934,43.456,43.903,42.536,45.106,-1.95352,-1.94792,-0.00000
0.873,-0.00282,-0.00697,-0.00343,0.03260,-0.03237,0.96876,43.456,43.903,42.536,45.216,-1.95307,-1.94770,-0.00000
0.883,-0.00282,-0.00702,-0.00346,0.02726,-0.03104,0.97278,43.456,43.903,42.536,45.216,-1.95171,-1.94398,-0.00000
0.893,-0.00288,-0.00696,-0.00347,0.03034,-0.03814,0.97317,43.456,43.903,42.536,44.995,-1.95487,-1.94226,-0.00000
0.903,-0.00287,-0.00687,-0.00349,0.03280,-0.03280,0.97094,43.456,43.903,42.536,45.216,-1.95464,-1.94218,-0.00000
0.913,-0.00288,-0.00682,-0.00352,0.03038,-0.03393,0.96915,43.456,43.903,42.536,45.216,-1.95518,-1.94059,-0.00000
0.923,-0.00291,-0.00683,-0.00355,0.03249,-0.03405,0.96821,43.456,43.903,42.536,44.995,-1.95580,-1.94039,-0.00000
0.933,-0.00289,-0.00687,-0.00354,0.03093,-0.03377,0.96716,43.461,43.903,42.536,44.995,-1.95627,-1.93920,-0.00000
0.943,-0.00285,-0.00685,-0.00351,0.03510,-0.03182,0.97044,43.461,43.903,42.536,45.106,-1.95541,-1.94064,-0.00000
0.953,-0.00285,-0.00678,-0.00350,0.03206,-0.03717,0.96763,43.461,43.903,42.536,45.106,-1.95805,-1.94017,-0.00000
0.963,-0.00285,-0.00674,-0.00352,0.03073,-0.03471,0.97001,43.461,43.903,42.536,44.995,-1.95903,-1.93881,-0.00000
0.973,-0.00281,-0.00676,-0.00352,0.03323,-0.03311,0.96911,43.461,43.903,42.536,45.106,-1.95899,-1.93908,-0.00000
0.983,-0.00278,-0.00682,-0.00349,0.03249,-0.02894,0.97075,43.461,43.903,42.560,45.106,-1.95625,-1.93884,-0.00000
0.993,-0.00278,-0.00687,-0.00345,0.03085,-0.03139,0.96720,43.461,43.903,42.560,44.995,-1.95519,-1.93762,-0.00000
1.003,-0.00278,-0.00682,-0.00342,0.02941,-0.03241,0.96751,43.461,43.903,42.560,45.216,-1.95478,-1.93549,-0.00000
1.013,-0.00280,-0.00676,-0.00342,0.03167,-0.03549,0.96786,43.461,43.903,42.560,45.327,-1.95634,-1.93482,-0.00000
1.023,-0.00278,-0.00683,-0.00342,0.03225,-0.03799,0.96903,43.461,43.903,42.560,45.106,-1.95946,-1.93451,-0.00000
1.033,-0.00279,-0.00698,-0.00342,0.02909,-0.03834,0.96923,43.461,43.941,42.560,45.106,-1.96277,-1.93218,-0.00000
1.043,-0.00279,-0.00705,-0.00345,0.03405,-0.03452,0.97001,43.461,43.941,42.560,45.106,-1.96357,-1.93302,-0.00000
1.053,-0.00281,-0.00704,-0.00345,0.02937,-0.03334,0.97048,43.461,43.941,42.560,45.327,-1.96361,-1.93085,-0.00000
1.063,-0.00283,-0.00701,-0.00346,0.03323,-0.03264,0.97133,43.461,43.941,42.560,45.216,-1.96317,-1.93116,-0.00000
1.073,-0.00284,-0.00708,-0.00350,0.03319,-0.03081,0.96950,43.461,43.941,42.560,45.216,-1.96161,-1.93148,-0.00000
1.083,-0.00287,-0.00718,-0.00354,0.03108,-0.03877,0.97168,43.461,43.941,42.560,44.995,-1.96510,-1.93040,-0.00000
1.093,-0.00287,-0.00722,-0.00356,0.02430,-0.03241,0.96416,43.461,43.941,42.560,45.106,-1.96466,-1.92512,-0.00000
1.103,-0.00287,-0.00721,-0.00356,0.03373,-0.03233,0.96825,43.461,43.941,42.560,45.216,-1.96408,-1.92588,-0.00000
1.113,-0.00288,-0.00715,-0.00357,0.02867,-0.03128,0.96802,43.461,43.941,42.560,44.995,-1.96284,-1.92339,-0.00000
1.123,-0.00286,-0.00711,-0.00358,0.03050,-0.03600,0.96802,43.461,43.941,42.560,45.106,-1.96464,-1.92210,-0.00000
1.133,-0.00285,-0.00713,-0.00359,0.03362,-0.03311,0.97001,43.456,43.941,42.560,44.995,-1.96453,-1.92278,-0.00000
1.143,-0.00285,-0.00716,-0.00358,0.03030,-0.03518,0.96864,43.456,43.941,42.560,45.327,-1.96577,-1.92136,-0.00000
1.153,-0.00281,-0.00709,-0.00358,0.03077,-0.03588,0.96997,43.456,43.941,42.560,44.995,-1.96741,-1.92023,-0.00000
1.163,-0.00284,-0.00696,-0.00355,0.03643,-0.02976,0.96728,43.456,43.941,42.560,45.216,-1.96517,-1.92280,-0.00000
1.173,-0.00285,-0.00693,-0.00351,0.03303,-0.03826,0.97083,43.456,43.941,42.560,45.216,-1.96832,-1.92308,-0.00000
1.183,-0.00282,-0.00697,-0.00349,0.03159,-0.03666,0.97126,43.456,43.941,42.490,45.216,-1.97041,-1.92242,-0.00000
1.193,-0.00282,-0.00698,-0.00350,0.03303,-0.03467,0.97048,43.456,43.941,42.490,45.216,-1.97121,-1.92272,-0.00000
1.203,-0.00283,-0.00690,-0.00349,0.03280,-0.03260,0.96864,43.456,43.941,42.490,45.216,-1.97073,-1.92290,-0.00000
1.213,-0.00282,-0.00678,-0.00350,0.03381,-0.03327,0.97048,43.456,43.941,42.490,45.106,-1.97064,-1.92369,-0.00000
1.223,-0.00280,-0.00673,-0.00351,0.03089,-0.02867,0.96997,43.456,43.941,42.490,45.106,-1.96761,-1.92260,-0.00000
1.233,-0.00282,-0.00674,-0.00352,0.03483,-0.03553,0.97188,43.456,43.943,42.490,44.995,-1.96896,-1.92401,-0.00000
1.243,-0.00286,-0.00678,-0.00352,0.02695,-0.03327,0.96915,43.456,43.943,42.490,45.216,-1.96892,-1.92042,-0.00000
1.253,-0.00293,-0.00681,-0.00350,0.03303,-0.03522,0.96880,43.456,43.943,42.490,45.216,-1.97014,-1.92077,-0.00000
1.263,-0.00293,-0.00678,-0.00350,0.03409,-0.03073,0.96673,43.456,43.943,42.490,44.995,-1.96850,-1.92184,-0.00000
1.273,-0.00295,-0.00675,-0.00351,0.03007,-0.03073,0.97087,43.456,43.943,42.490,45.216,-1.96681,-1.92023,-0.00000
1.283,-0.00299,-0.00682,-0.00350,0.03089,-0.03030,0.97207,43.456,43.943,42.490,45.216,-1.96483,-1.91915,-0.00000
1.293,-0.00295,-0.00690,-0.00350,0.03101,-0.03440,0.97137,43.456,43.943,42.490,45.216,-1.96551,-1.91816,-0.00000
1.303,-0.00296,-0.00688,-0.00350,0.03370,-0.02995,0.97052,43.456,43.943,42.490,45.216,-1.96335,-1.91892,-0.00000
1.313,-0.00292,-0.00682,-0.00352,0.03409,-0.03767,0.97114,43.456,43.943,42.490,45.106,-1.96614,-1.91991,-0.00000
1.323,-0.00292,-0.00681,-0.00355,0.03627,-0.03619,0.97293,43.456,43.943,42.490,45.216,-1.96790,-1.92225,-0.00000
1.333,-0.00288,-0.00682,-0.00355,0.03054,-0.03334,0.97020,43.459,43.943,42.490,45.216,-1.96790,-1.92095,-0.00000
1.343,-0.00288,-0.00686,-0.00356,0.03229,-0.03662,0.96782,43.459,43.943,42.490,45.216,-1.97004,-1.92084,-0.00000
1.353,-0.00288,-0.00688,-0.00356,0.02707,-0.03725,0.96845,43.459,43.943,42.490,45.216,-1.97256,-1.91737,-0.00000
1.363,-0.00291,-0.00685,-0.00358,0.03748,-0.03042,0.97122,43.459,43.943,42.490,45.216,-1.97060,-1.92054,-0.00000
1.373,-0.00289,-0.00679,-0.00359,0.02675,-0.03292,0.96814,43.459,43.943,42.490,45.216,-1.97034,-1.91688,-0.00000
1.383,-0.00285,-0.00677,-0.00362,0.03389,-0.03615,0.97075,43.459,43.943,42.556,45.327,-1.97209,-1.91778,-0.00000
1.393,-0.00286,-0.00688,-0.00363,0.03190,-0.03654,0.96740,43.459,43.943,42.556,45.106,-1.97415,-1.91746,-0.00000
1.403,-0.00285,-0.00698,-0.00362,0.03436,-0.03334,0.97231,43.459,43.943,42.556,44.995,-1.97403,-1.91862,-0.00000
1.413,-0.00284,-0.00695,-0.00361,0.03366,-0.03210,0.97098,43.459,43.943,42.556,45.106,-1.97314,-1.91934,-0.00000
1.423,-0.00284,-0.00688,-0.00359,0.03432,-0.03455,0.97106,43.459,43.943,42.556,44.995,-1.97383,-1.92048,-0.00000
1.433,-0.00282,-0.00688,-0.00359,0.03413,-0.03299,0.97098,43.459,43.906,42.556,45.216,-1.97352,-1.92148,-0.00000
1.443,-0.00283,-0.00695,-0.00359,0.02765,-0.03666,0.96981,43.459,43.906,42.556,45.106,-1.97559,-1.91835,-0.00000
1.453,-0.00276,-0.00698,-0.00358,0.03463,-0.03604,0.97235,43.459,43.906,42.556,45.216,-1.97717,-1.91967,-0.00000
1.463,-0.00276,-0.00696,-0.00360,0.03319,-0.03276,0.96911,43.459,43.906,42.556,45.216,-1.97671,-1.92012,-0.00000
1.473,-0.00273,-0.00692,-0.00358,0.03089,-0.03518,0.96743,43.459,43.906,42.556,45.216,-1.97784,-1.91913,-0.00000
1.483,-0.00272,-0.00688,-0.00358,0.03186,-0.03249,0.96767,43.459,43.906,42.556,45.216,-1.97724,-1.91877,-0.00000
1.493,-0.00271,-0.00693,-0.00358,0.02905,-0.03857,0.96938,43.459,43.906,42.556,45.216,-1.98049,-1.91658,-0.00000
1.503,-0.00267,-0.00701,-0.00361,0.03315,-0.03062,0.96985,43.459,43.906,42.556,45.106,-1.97861,-1.91702,-0.00000
1.513,-0.00266,-0.00702,-0.00361,0.03147,-0.03081,0.97219,43.459,43.906,42.556,45.106,-1.97683,-1.91634,-0.00000
1.523,-0.00268,-0.00692,-0.00359,0.03284,-0.03420,0.97133,43.459,43.906,42.556,44.885,-1.97725,-1.91656,-0.00000
1.533,-0.00268,-0.00681,-0.00360,0.03401,-0.03397,0.97211,43.457,43.906,42.556,44.995,-1.97750,-1.91750,-0.00000
1.543,-0.00268,-0.00675,-0.00360,0.03366,-0.03054,0.97071,43.457,43.906,42.556,44.995,-1.97558,-1.91824,-0.00000
1.553,-0.00272,-0.00675,-0.00362,0.03362,-0.03397,0.97091,43.457,43.906,42.556,45.216,-1.97587,-1.91895,-0.00000
1.563,-0.00271,-0.00674,-0.00364,0.03276,-0.03104,0.96845,43.457,43.906,42.556,45.327,-1.97434,-1.91915,-0.00000
1.573,-0.00268,-0.00667,-0.00363,0.02968,-0.03448,0.96876,43.457,43.906,42.556,45.216,-1.97502,-1.91736,-0.00000
1.583,-0.00273,-0.00662,-0.00361,0.03370,-0.03155,0.97204,43.457,43.906,42.557,44.995,-1.97375,-1.91810,-0.00000
1.593,-0.00273,-0.00662,-0.00359,0.03452,-0.03358,0.96560,43.457,43.906,42.557,45.216,-1.97393,-1.91950,-0.00000
1.603,-0.00272,-0.00662,-0.00360,0.03132,-0.03381,0.97137,43.457,43.906,42.557,44.995,-1.97414,-1.91871,-0.00000
1.613,-0.00271,-0.00665,-0.00362,0.03073,-0.03202,0.96677,43.457,43.906,42.557,44.995,-1.97329,-1.91765,-0.00000
1.623,-0.00272,-0.00661,-0.00362,0.03284,-0.03615,0.97204,43.457,43.906,42.557,45.106,-1.97498,-1.91783,-0.00000
1.633,-0.00272,-0.00653,-0.00362,0.03888,-0.03463,0.97434,43.457,43.931,42.557,45.106,-1.97562,-1.92182,-0.00000
1.643,-0.00275,-0.00648,-0.00362,0.02933,-0.03459,0.96915,43.457,43.931,42.557,44.995,-1.97635,-1.91977,-0.00000
1.653,-0.00275,-0.00651,-0.00363,0.03358,-0.03323,0.96970,43.457,43.931,42.557,45.106,-1.97619,-1.92046,-0.00000
1.663,-0.00275,-0.00660,-0.00364,0.03155,-0.03775,0.96950,43.457,43.931,42.557,45.106,-1.97893,-1.91985,-0.00000
1.673,-0.00277,-0.00666,-0.00365,0.03292,-0.03487,0.96970,43.457,43.931,42.557,44.995,-1.97979,-1.92011,-0.00000
1.683,-0.00277,-0.00666,-0.00364,0.03288,-0.03662,0.96681,43.457,43.931,42.557,45.216,-1.98183,-1.92041,-0.00000
1.693,-0.00277,-0.00664,-0.00362,0.02999,-0.03389,0.97016,43.457,43.931,42.557,45.106,-1.98203,-1.91879,-0.00000
1.703,-0.00279,-0.00665,-0.00360,0.03108,-0.03502,0.97461,43.457,43.931,42.557,45.216,-1.98284,-1.91779,-0.00000
1.713,-0.00278,-0.00668,-0.00363,0.03440,-0.03904,0.96899,43.457,43.931,42.557,45.327,-1.98634,-1.91904,-0.00000
1.723,-0.00278,-0.00669,-0.00364,0.03264,-0.03448,0.96946,43.457,43.931,42.557,44.995,-1.98688,-1.91914,-0.00000
1.733,-0.00278,-0.00668,-0.00365,0.03089,-0.03650,0.96736,43.456,43.931,42.557,45.216,-1.98876,-1.91816,-0.00000
1.743,-0.00278,-0.00664,-0.00364,0.03479,-0.03132,0.97422,43.456,43.931,42.557,44.995,-1.98714,-1.91954,-0.00000
1.753,-0.00275,-0.00662,-0.00363,0.03682,-0.03362,0.96954,43.456,43.931,42.557,44.995,-1.98711,-1.92231,-0.00000
1.763,-0.00272,-0.00660,-0.00365,0.03007,-0.03869,0.96950,43.456,43.931,42.557,44.995,-1.99034,-1.92072,-0.00000
1.773,-0.00271,-0.00664,-0.00366,0.03171,-0.03576,0.96576,43.456,43.931,42.557,45.106,-1.99174,-1.92029,-0.00000
1.783,-0.00270,-0.00660,-0.00368,0.03338,-0.03260,0.96821,43.456,43.931,42.531,45.106,-1.99104,-1.92088,-0.00000
1.793,-0.00266,-0.00651,-0.00368,0.03370,-0.03631,0.96876,43.456,43.931,42.531,45.106,-1.99271,-1.92165,-0.00000
1.803,-0.00268,-0.00643,-0.00370,0.03163,-0.04036,0.96478,43.456,43.931,42.531,44.995,-1.99707,-1.92117,-0.00000
1.813,-0.00268,-0.00641,-0.00372,0.03572,-0.03362,0.97282,43.456,43.931,42.531,44.995,-1.99686,-1.92315,-0.00000
1.823,-0.00268,-0.00647,-0.00373,0.03104,-0.03186,0.96794,43.456,43.931,42.531,44.885,-1.99564,-1.92221,-0.00000
1.833,-0.00267,-0.00651,-0.00375,0.02664,-0.03471,0.97083,43.456,43.879,42.531,45.327,-1.99620,-1.91841,-0.00000
1.843,-0.00268,-0.00650,-0.00374,0.03143,-0.02898,0.96837,43.456,43.879,42.531,45.216,-1.99313,-1.91777,-0.00000
1.853,-0.00274,-0.00649,-0.00372,0.03011,-0.03350,0.97001,43.456,43.879,42.531,44.995,-1.99295,-1.91625,-0.00000
1.863,-0.00281,-0.00647,-0.00370,0.03151,-0.03143,0.96825,43.456,43.879,42.531,45.216,-1.99149,-1.91568,-0.00000
1.873,-0.00283,-0.00649,-0.00370,0.03354,-0.03132,0.97262,43.456,43.879,42.531,44.995,-1.98988,-1.91633,-0.00000
1.883,-0.00278,-0.00652,-0.00371,0.03596,-0.03491,0.97083,43.456,43.879,42.531,45.106,-1.99062,-1.91855,-0.00000
1.893,-0.00275,-0.00653,-0.00372,0.03268,-0.03467,0.97110,43.456,43.879,42.531,44.995,-1.99120,-1.91865,-0.00000
1.903,-0.00275,-0.00648,-0.00376,0.03268,-0.03413,0.97512,43.456,43.879,42.531,45.216,-1.99133,-1.91866,-0.00000
1.913,-0.00275,-0.00645,-0.00378,0.03545,-0.03647,0.97360,43.456,43.879,42.531,44.995,-1.99298,-1.92047,-0.00000
1.923,-0.00275,-0.00645,-0.00379,0.03249,-0.03674,0.96736,43.456,43.879,42.531,44.995,-1.99494,-1.92050,-0.00000
1.933,-0.00272,-0.00652,-0.00379,0.03537,-0.03276,0.96775,43.456,43.879,42.531,44.995,-1.99432,-1.92237,-0.00000
1.943,-0.00269,-0.00658,-0.00377,0.03147,-0.03397,0.96977,43.456,43.879,42.531,44.995,-1.99443,-1.92168,-0.00000
1.953,-0.00273,-0.00655,-0.00374,0.03245,-0.03171,0.97133,43.456,43.879,42.531,45.106,-1.99307,-1.92159,-0.00000
1.963,-0.00278,-0.00649,-0.00372,0.03022,-0.03689,0.97048,43.456,43.879,42.531,45.106,-1.99505,-1.92010,-0.00000
1.973,-0.00278,-0.00647,-0.00369,0.03108,-0.03276,0.96806,43.456,43.879,42.531,44.995,-1.99443,-1.91922,-0.00000
1.983,-0.00272,-0.00650,-0.00368,0.03529,-0.03366,0.97028,43.456,43.879,42.552,45.106,-1.99433,-1.92100,-0.00000
1.993,-0.00267,-0.00660,-0.00366,0.03077,-0.03003,0.97200,43.456,43.879,42.552,44.995,-1.99188,-1.91983,-0.00000
2.003,-0.00265,-0.00663,-0.00364,0.03155,-0.03260,0.97328,43.456,43.879,42.552,45.216,-1.99107,-1.91914,-0.00000
2.013,-0.00272,-0.00661,-0.00363,0.03362,-0.03319,0.96931,43.456,43.879,42.552,44.995,-1.99073,-1.91987,-0.00000
2.023,-0.00275,-0.00659,-0.00360,0.03264,-0.03093,0.96993,43.456,43.879,42.552,44.885,-1.98894,-1.91996,-0.00000
2.033,-0.00274,-0.00663,-0.00357,0.03108,-0.03970,0.96767,43.456,43.939,42.552,45.216,-1.99284,-1.91909,-0.00000
2.043,-0.00272,-0.00674,-0.00355,0.03483,-0.03888,0.96662,43.456,43.939,42.552,45.216,-1.99619,-1.92065,-0.00000
2.053,-0.00273,-0.00678,-0.00355,0.03541,-0.02812,0.96931,43.456,43.939,42.552,45.327,-1.99255,-1.92252,-0.00000
2.063,-0.00275,-0.00674,-0.00355,0.03682,-0.03565,0.96966,43.456,43.939,42.552,45.106,-1.99376,-1.92525,-0.00000
2.073,-0.00275,-0.00666,-0.00358,0.03257,-0.03647,0.96872,43.456,43.939,42.552,45.106,-1.99550,-1.92525,-0.00000
2.083,-0.00276,-0.00660,-0.00362,0.03058,-0.03448,0.96856,43.456,43.939,42.552,45.216,-1.99596,-1.92398,-0.00000
2.093,-0.00278,-0.00660,-0.00363,0.03596,-0.03413,0.97161,43.456,43.939,42.552,45.106,-1.99611,-1.92610,-0.00000
2.103,-0.00279,-0.00665,-0.00365,0.03393,-0.03101,0.97055,43.456,43.939,42.552,45.106,-1.99430,-1.92693,-0.00000
2.113,-0.00282,-0.00662,-0.00365,0.03085,-0.03221,0.96759,43.456,43.939,42.552,44.995,-1.99334,-1.92583,-0.00000
2.123,-0.00281,-0.00657,-0.00365,0.03494,-0.03888,0.97387,43.456,43.939,42.552,45.216,-1.99650,-1.92724,-0.00000
2.133,-0.00277,-0.00654,-0.00364,0.02956,-0.03042,0.97071,43.449,43.939,42.552,44.995,-1.99430,-1.92525,-0.00000
2.143,-0.00275,-0.00658,-0.00362,0.02991,-0.03292,0.97009,43.449,43.939,42.552,45.106,-1.99374,-1.92352,-0.00000
2.153,-0.00275,-0.00669,-0.00362,0.03373,-0.03401,0.97223,43.449,43.939,42.552,44.995,-1.99383,-1.92422,-0.00000
2.163,-0.00275,-0.00675,-0.00358,0.03479,-0.03104,0.96829,43.449,43.939,42.552,44.995,-1.99211,-1.92566,-0.00000
2.173,-0.00271,-0.00672,-0.00358,0.02964,-0.03186,0.96899,43.449,43.939,42.552,44.885,-1.99092,-1.92378,-0.00000
2.183,-0.00271,-0.00669,-0.00359,0.03272,-0.03358,0.96810,43.449,43.939,42.531,44.995,-1.99086,-1.92391,-0.00000
2.193,-0.00271,-0.00671,-0.00359,0.03444,-0.03342,0.97293,43.449,43.939,42.531,44.885,-1.99059,-1.92503,-0.00000
2.203,-0.00267,-0.00678,-0.00360,0.03147,-0.03576,0.96825,43.449,43.939,42.531,44.995,-1.99193,-1.92434,-0.00000
2.213,-0.00263,-0.00683,-0.00360,0.03358,-0.03420,0.97016,43.449,43.939,42.531,45.216,-1.99222,-1.92497,-0.00000
2.223,-0.00262,-0.00683,-0.00359,0.03389,-0.03331,0.96716,43.449,43.939,42.531,45.106,-1.99199,-1.92586,-0.00000
2.233,-0.00260,-0.00677,-0.00358,0.03327,-0.03069,0.97102,43.449,43.897,42.531,45.106,-1.99001,-1.92626,-0.00000
2.243,-0.00261,-0.00673,-0.00357,0.02929,-0.03186,0.96974,43.449,43.897,42.531,45.327,-1.98882,-1.92413,-0.00000
2.253,-0.00265,-0.00672,-0.00355,0.02761,-0.03257,0.97016,43.449,43.897,42.531,45.437,-1.98809,-1.92094,-0.00000
2.263,-0.00271,-0.00677,-0.00355,0.03701,-0.03268,0.96829,43.449,43.897,42.531,45.106,-1.98748,-1.92384,-0.00000
2.273,-0.00272,-0.00675,-0.00355,0.03253,-0.03101,0.96915,43.449,43.897,42.531,45.327,-1.98579,-1.92383,-0.00000
2.283,-0.00272,-0.00666,-0.00356,0.03491,-0.03416,0.96880,43.449,43.897,42.531,45.106,-1.98614,-1.92534,-0.00000
2.293,-0.00269,-0.00659,-0.00357,0.03342,-0.03576,0.97133,43.449,43.897,42.531,44.995,-1.98746,-1.92583,-0.00000
2.303,-0.00270,-0.00657,-0.00358,0.03647,-0.03311,0.96623,43.449,43.897,42.531,45.106,-1.98717,-1.92839,-0.00000
2.313,-0.00266,-0.00662,-0.00358,0.03007,-0.03077,0.97157,43.449,43.897,42.531,45.216,-1.98529,-1.92670,-0.00000
2.323,-0.00262,-0.00664,-0.00358,0.03268,-0.03405,0.97118,43.449,43.897,42.531,45.327,-1.98552,-1.92671,-0.00000
2.333,-0.00265,-0.00660,-0.00355,0.03401,-0.03756,0.96755,43.455,43.897,42.531,44.885,-1.98808,-1.92764,-0.00000
2.343,-0.00263,-0.00658,-0.00355,0.03190,-0.03229,0.97317,43.455,43.897,42.531,45.106,-1.98712,-1.92710,-0.00000
2.353,-0.00260,-0.00655,-0.00357,0.03186,-0.03600,0.96938,43.455,43.897,42.531,44.995,-1.98862,-1.92662,-0.00000
2.363,-0.00260,-0.00657,-0.00360,0.02835,-0.03085,0.97048,43.455,43.897,42.531,45.106,-1.98679,-1.92387,-0.00000
2.373,-0.00258,-0.00662,-0.00362,0.03370,-0.03015,0.96958,43.455,43.897,42.531,45.216,-1.98454,-1.92459,-0.00000
2.383,-0.00255,-0.00661,-0.00362,0.03323,-0.03370,0.96853,43.455,43.897,42.548,45.216,-1.98462,-1.92503,-0.00000
2.393,-0.00254,-0.00652,-0.00361,0.03175,-0.03444,0.97079,43.455,43.897,42.548,44.995,-1.98512,-1.92446,-0.00000
2.403,-0.00255,-0.00646,-0.00359,0.03260,-0.03518,0.97445,43.455,43.897,42.548,44.995,-1.98600,-1.92438,-0.00000
2.413,-0.00253,-0.00645,-0.00358,0.02820,-0.03260,0.97013,43.455,43.897,42.548,45.106,-1.98532,-1.92156,-0.00000
2.423,-0.00252,-0.00651,-0.00362,0.03444,-0.03186,0.96974,43.455,43.897,42.548,44.995,-1.98419,-1.92278,-0.00000
2.433,-0.00252,-0.00654,-0.00361,0.03257,-0.03467,0.96915,43.455,43.947,42.548,45.216,-1.98488,-1.92280,-0.00000
2.443,-0.00254,-0.00648,-0.00358,0.03346,-0.03416,0.97091,43.455,43.947,42.548,45.106,-1.98520,-1.92335,-0.00000
2.453,-0.00252,-0.00642,-0.00358,0.03623,-0.03584,0.96845,43.455,43.947,42.548,45.216,-1.98664,-1.92573,-0.00000
2.463,-0.00247,-0.00638,-0.00358,0.03179,-0.03292,0.96814,43.455,43.947,42.548,44.995,-1.98620,-1.92524,-0.00000
2.473,-0.00245,-0.00639,-0.00358,0.03416,-0.03561,0.96677,43.455,43.947,42.548,45.106,-1.98752,-1.92631,-0.00000
2.483,-0.00242,-0.00642,-0.00356,0.03487,-0.03413,0.97192,43.455,43.947,42.548,45.216,-1.98776,-1.92770,-0.00000
2.493,-0.00242,-0.00642,-0.00352,0.03693,-0.03631,0.97118,43.455,43.947,42.548,45.216,-1.98941,-1.93041,-0.00000
2.503,-0.00240,-0.00639,-0.00351,0.03007,-0.03491,0.97282,43.455,43.947,42.548,44.995,-1.99011,-1.92868,-0.00000
2.513,-0.00238,-0.00638,-0.00352,0.03342,-0.03058,0.96685,43.455,43.947,42.548,44.995,-1.98816,-1.92923,-0.00000
2.523,-0.00240,-0.00641,-0.00352,0.03179,-0.03257,0.97414,43.455,43.947,42.548,45.106,-1.98735,-1.92858,-0.00000
2.533,-0.00238,-0.00649,-0.00353,0.03728,-0.03280,0.96767,43.450,43.947,42.548,44.995,-1.98683,-1.93159,-0.00000
2.543,-0.00236,-0.00655,-0.00352,0.03190,-0.03366,0.97215,43.450,43.947,42.548,44.885,-1.98678,-1.93103,-0.00000
2.553,-0.00238,-0.00651,-0.00347,0.03338,-0.03030,0.96607,43.450,43.947,42.548,45.106,-1.98470,-1.93155,-0.00000
2.563,-0.00238,-0.00646,-0.00344,0.03116,-0.03186,0.96704,43.450,43.947,42.548,45.216,-1.98363,-1.93062,-0.00000
2.573,-0.00238,-0.00644,-0.00341,0.03424,-0.03295,0.96895,43.450,43.947,42.548,45.216,-1.98323,-1.93163,-0.00000
2.583,-0.00243,-0.00652,-0.00341,0.03686,-0.03249,0.96623,43.450,43.947,42.539,45.216,-1.98259,-1.93437,-0.00000
2.593,-0.00248,-0.00664,-0.00344,0.02683,-0.03533,0.96837,43.450,43.947,42.539,44.885,-1.98374,-1.93061,-0.00000
2.603,-0.00247,-0.00666,-0.00345,0.02948,-0.03229,0.97157,43.450,43.947,42.539,45.216,-1.98287,-1.92852,-0.00000
2.613,-0.00255,-0.00665,-0.00348,0.03721,-0.03483,0.97075,43.450,43.947,42.539,45.216,-1.98363,-1.93141,-0.00000
2.623,-0.00256,-0.00665,-0.00352,0.03054,-0.03362,0.97340,43.450,43.947,42.539,44.995,-1.98356,-1.92995,-0.00000
2.633,-0.00255,-0.00667,-0.00354,0.03253,-0.03576,0.96970,43.450,43.920,42.539,44.885,-1.98494,-1.92985,-0.00000
2.643,-0.00251,-0.00677,-0.00355,0.02948,-0.03292,0.96673,43.450,43.920,42.539,45.216,-1.98455,-1.92787,-0.00000
2.653,-0.00248,-0.00684,-0.00355,0.03151,-0.03397,0.96763,43.450,43.920,42.539,45.216,-1.98482,-1.92719,-0.00000
2.663,-0.00248,-0.00682,-0.00353,0.03155,-0.03151,0.96970,43.450,43.920,42.539,45.106,-1.98347,-1.92650,-0.00000
2.673,-0.00253,-0.00676,-0.00352,0.03670,-0.03311,0.96970,43.450,43.920,42.539,45.106,-1.98315,-1.92911,-0.00000
2.683,-0.00256,-0.00675,-0.00352,0.03553,-0.03245,0.97036,43.450,43.920,42.539,45.106,-1.98240,-1.93093,-0.00000
2.693,-0.00257,-0.00678,-0.00354,0.03452,-0.03572,0.97317,43.450,43.920,42.539,44.885,-1.98369,-1.93202,-0.00000
2.703,-0.00259,-0.00682,-0.00355,0.02886,-0.03409,0.96817,43.450,43.920,42.539,45.106,-1.98404,-1.92958,-0.00000
2.713,-0.00255,-0.00679,-0.00354,0.03572,-0.03120,0.97028,43.450,43.920,42.539,45.216,-1.98248,-1.93153,-0.00000
2.723,-0.00255,-0.00672,-0.00351,0.03276,-0.03342,0.97453,43.450,43.920,42.539,44.995,-1.98227,-1.93146,-0.00000
2.733,-0.00257,-0.00668,-0.00350,0.02344,-0.03728,0.96712,43.451,43.920,42.539,45.106,-1.98471,-1.92556,-0.00000
2.743,-0.00252,-0.00675,-0.00349,0.02874,-0.03448,0.96923,43.451,43.920,42.539,45.327,-1.98527,-1.92310,-0.00000
2.753,-0.00253,-0.00689,-0.00349,0.03545,-0.03307,0.97044,43.451,43.920,42.539,45.106,-1.98489,-1.92494,-0.00000
2.763,-0.00253,-0.00694,-0.00349,0.03444,-0.03175,0.96884,43.451,43.920,42.539,45.216,-1.98370,-1.92614,-0.00000
2.773,-0.00258,-0.00687,-0.00352,0.02609,-0.03475,0.97098,43.451,43.920,42.539,44.995,-1.98441,-1.92194,-0.00000
2.783,-0.00260,-0.00681,-0.00355,0.03467,-0.03756,0.97016,43.451,43.920,42.535,45.216,-1.98692,-1.92329,-0.00000
2.793,-0.00258,-0.00685,-0.00359,0.03229,-0.03471,0.97414,43.451,43.920,42.535,44.995,-1.98749,-1.92302,-0.00000
2.803,-0.00258,-0.00695,-0.00362,0.03631,-0.03892,0.97028,43.451,43.920,42.535,45.106,-1.99083,-1.92541,-0.00000
2.813,-0.00260,-0.00699,-0.00366,0.03093,-0.03179,0.97091,43.451,43.920,42.535,45.327,-1.98957,-1.92432,-0.00000
2.823,-0.00259,-0.00698,-0.00368,0.03303,-0.03276,0.97149,43.451,43.920,42.535,44.995,-1.98892,-1.92457,-0.00000
2.833,-0.00262,-0.00695,-0.00372,0.03124,-0.02929,0.96903,43.451,43.933,42.535,45.106,-1.98612,-1.92372,-0.00000
2.843,-0.00262,-0.00699,-0.00374,0.02671,-0.03424,0.97036,43.451,43.933,42.535,45.327,-1.98649,-1.91996,-0.00000
2.853,-0.00265,-0.00704,-0.00376,0.03892,-0.03416,0.97165,43.451,43.933,42.535,44.995,-1.98677,-1.92402,-0.00000
2.863,-0.00268,-0.00708,-0.00376,0.03003,-0.03303,0.96685,43.451,43.933,42.535,45.106,-1.98643,-1.92244,-0.00000
2.873,-0.00270,-0.00702,-0.00376,0.03467,-0.03436,0.96786,43.451,43.933,42.535,45.106,-1.98692,-1.92384,-0.00000
2.883,-0.00272,-0.00688,-0.00379,0.03050,-0.03537,0.97040,43.451,43.933,42.535,44.995,-1.98801,-1.92250,-0.00000
2.893,-0.00275,-0.00685,-0.00384,0.03428,-0.03264,0.96669,43.451,43.933,42.535,44.995,-1.98741,-1.92368,-0.00000
2.903,-0.00272,-0.00690,-0.00388,0.03128,-0.03097,0.96876,43.451,43.933,42.535,45.216,-1.98570,-1.92287,-0.00000
2.913,-0.00270,-0.00694,-0.00391,0.03159,-0.03120,0.97133,43.451,43.933,42.535,45.216,-1.98410,-1.92222,-0.00000
2.923,-0.00271,-0.00688,-0.00393,0.02695,-0.03424,0.96806,43.451,43.933,42.535,45.216,-1.98455,-1.91866,-0.00000
2.933,-0.00268,-0.00678,-0.00395,0.03299,-0.03354,0.96841,43.448,43.933,42.535,45.216,-1.98452,-1.91902,-0.00000
2.943,-0.00266,-0.00673,-0.00395,0.03331,-0.03370,0.96856,43.448,43.933,42.535,45.327,-1.98460,-1.91956,-0.00000
2.953,-0.00265,-0.00676,-0.00394,0.02734,-0.02984,0.96880,43.448,43.933,42.535,45.106,-1.98219,-1.91627,-0.00000
2.963,-0.00261,-0.00681,-0.00391,0.03440,-0.03459,0.96599,43.448,43.933,42.535,44.995,-1.98293,-1.91761,-0.00000
2.973,-0.00258,-0.00677,-0.00388,0.03362,-0.03416,0.97118,43.448,43.933,42.535,45.216,-1.98326,-1.91832,-0.00000
2.983,-0.00255,-0.00670,-0.00387,0.02948,-0.03452,0.96775,43.448,43.933,42.542,45.216,-1.98389,-1.91644,-0.00000
2.993,-0.00249,-0.00666,-0.00388,0.03373,-0.03292,0.96817,43.448,43.933,42.542,44.995,-1.98348,-1.91729,-0.00000
3.003,-0.00246,-0.00673,-0.00390,0.02726,-0.03662,0.97243,43.448,43.933,42.542,44.995,-1.98535,-1.91391,-0.00000
3.013,-0.00238,-0.00686,-0.00388,0.03650,-0.03350,0.97153,43.448,43.933,42.542,44.995,-1.98522,-1.91650,-0.00000
3.023,-0.00237,-0.00691,-0.00386,0.03022,-0.03549,0.97036,43.448,43.933,42.542,45.216,-1.98640,-1.91506,-0.00000
3.033,-0.00235,-0.00688,-0.00381,0.03175,-0.03600,0.96880,43.448,43.871,42.542,45.106,-1.98792,-1.91464,-0.00000
3.043,-0.00234,-0.00685,-0.00375,0.03190,-0.03565,0.96962,43.448,43.871,42.542,44.995,-1.98919,-1.91432,-0.00000
3.053,-0.00237,-0.00688,-0.00369,0.03377,-0.03358,0.97184,43.448,43.871,42.542,45.216,-1.98906,-1.91514,-0.00000
3.063,-0.00235,-0.00692,-0.00366,0.02898,-0.03334,0.97165,43.448,43.871,42.542,44.995,-1.98880,-1.91290,-0.00000
3.073,-0.00232,-0.00693,-0.00365,0.03303,-0.03682,0.96997,43.448,43.871,42.542,45.216,-1.99079,-1.91330,-0.00000
3.083,-0.00235,-0.00688,-0.00362,0.03459,-0.03436,0.96704,43.448,43.871,42.542,45.216,-1.99125,-1.91477,-0.00000
3.093,-0.00236,-0.00684,-0.00363,0.03050,-0.03568,0.96853,43.448,43.871,42.542,45.106,-1.99253,-1.91357,-0.00000
3.103,-0.00239,-0.00685,-0.00365,0.03533,-0.03073,0.97009,43.448,43.871,42.542,44.995,-1.99059,-1.91544,-0.00000
3.113,-0.00242,-0.00689,-0.00367,0.02835,-0.03214,0.97059,43.448,43.871,42.542,45.216,-1.98955,-1.91281,-0.00000
3.123,-0.00242,-0.00691,-0.00368,0.02835,-0.03366,0.96841,43.448,43.871,42.542,44.995,-1.98956,-1.91025,-0.00000
3.133,-0.00240,-0.00682,-0.00367,0.03580,-0.03026,0.97114,43.443,43.871,42.542,45.216,-1.98732,-1.91243,-0.00000
3.143,-0.00245,-0.00666,-0.00365,0.03311,-0.03202,0.97067,43.443,43.871,42.542,44.995,-1.98625,-1.91288,-0.00000
3.153,-0.00244,-0.00658,-0.00362,0.03299,-0.03701,0.97262,43.443,43.871,42.542,44.995,-1.98833,-1.91321,-0.00000
3.163,-0.00245,-0.00659,-0.00364,0.03471,-0.03471,0.96806,43.443,43.871,42.542,45.327,-1.98902,-1.91473,-0.00000
3.173,-0.00248,-0.00671,-0.00368,0.03463,-0.03572,0.97028,43.443,43.871,42.542,45.327,-1.99030,-1.91613,-0.00000
3.183,-0.00249,-0.00673,-0.00372,0.03471,-0.03631,0.97145,43.443,43.871,42.476,44.995,-1.99192,-1.91754,-0.00000
3.193,-0.00252,-0.00672,-0.00374,0.03229,-0.03311,0.97067,43.443,43.871,42.476,44.995,-1.99149,-1.91741,-0.00000
3.203,-0.00251,-0.00671,-0.00375,0.03069,-0.03502,0.96856,43.443,43.871,42.476,45.216,-1.99234,-1.91630,-0.00000
3.213,-0.00251,-0.00674,-0.00376,0.03198,-0.03522,0.97024,43.443,43.871,42.476,45.216,-1.99327,-1.91599,-0.00000
3.223,-0.00247,-0.00680,-0.00374,0.02898,-0.03732,0.96712,43.443,43.871,42.476,45.106,-1.99561,-1.91382,-0.00000
3.233,-0.00245,-0.00679,-0.00371,0.02843,-0.03241,0.97040,43.443,43.838,42.476,45.216,-1.99470,-1.91127,-0.00000
3.243,-0.00249,-0.00678,-0.00367,0.03151,-0.02890,0.97246,43.443,43.838,42.476,45.106,-1.99152,-1.91067,-0.00000
3.253,-0.00255,-0.00679,-0.00366,0.03650,-0.03529,0.96977,43.443,43.838,42.476,45.327,-1.99251,-1.91333,-0.00000
3.263,-0.00255,-0.00684,-0.00365,0.03167,-0.03089,0.97129,43.443,43.838,42.476,44.995,-1.99064,-1.91283,-0.00000
3.273,-0.00253,-0.00692,-0.00366,0.02929,-0.03346,0.96603,43.443,43.838,42.476,45.106,-1.99056,-1.91092,-0.00000
3.283,-0.00252,-0.00696,-0.00368,0.03007,-0.03479,0.96662,43.443,43.838,42.476,45.106,-1.99131,-1.90951,-0.00000
3.293,-0.00255,-0.00693,-0.00370,0.03295,-0.02870,0.97110,43.443,43.838,42.476,45.216,-1.98807,-1.90988,-0.00000
3.303,-0.00252,-0.00679,-0.00372,0.03276,-0.03607,0.97063,43.443,43.838,42.476,44.995,-1.98958,-1.91014,-0.00000
3.313,-0.00246,-0.00675,-0.00375,0.02730,-0.03709,0.96767,43.443,43.838,42.476,44.995,-1.99180,-1.90694,-0.00000
3.323,-0.00245,-0.00679,-0.00377,0.03362,-0.03725,0.97075,43.443,43.838,42.476,45.216,-1.99401,-1.90777,-0.00000
3.333,-0.00247,-0.00685,-0.00379,0.04048,-0.03487,0.97278,43.443,43.838,42.476,45.216,-1.99463,-1.91293,-0.00000
3.343,-0.00251,-0.00682,-0.00383,0.03432,-0.03190,0.97001,43.443,43.838,42.476,44.995,-1.99341,-1.91416,-0.00000
3.353,-0.00258,-0.00676,-0.00388,0.03015,-0.03580,0.96981,43.443,43.838,42.476,44.885,-1.99471,-1.91271,-0.00000
3.363,-0.00262,-0.00674,-0.00392,0.02886,-0.03483,0.96876,43.443,43.838,42.476,45.216,-1.99540,-1.91047,-0.00000
3.373,-0.00255,-0.00676,-0.00395,0.03034,-0.03186,0.97091,43.443,43.838,42.476,44.995,-1.99413,-1.90916,-0.00000
3.383,-0.00250,-0.00678,-0.00395,0.03015,-0.03514,0.96958,43.443,43.838,42.546,45.106,-1.99501,-1.90777,-0.00000
3.393,-0.00251,-0.00675,-0.00394,0.03050,-0.03385,0.97137,43.443,43.838,42.546,44.995,-1.99501,-1.90658,-0.00000
3.403,-0.00249,-0.00670,-0.00393,0.03292,-0.03385,0.96892,43.443,43.838,42.546,45.216,-1.99506,-1.90701,-0.00000
3.413,-0.00246,-0.00667,-0.00392,0.02921,-0.03370,0.96919,43.443,43.838,42.546,44.995,-1.99501,-1.90505,-0.00000
3.423,-0.00242,-0.00665,-0.00392,0.02941,-0.03506,0.96970,43.443,43.838,42.546,44.995,-1.99582,-1.90322,-0.00000
3.433,-0.00245,-0.00673,-0.00391,0.03619,-0.03409,0.96927,43.443,43.911,42.546,44.995,-1.99600,-1.90578,-0.00000
3.443,-0.00245,-0.00678,-0.00391,0.03436,-0.03381,0.97336,43.443,43.911,42.546,45.327,-1.99592,-1.90703,-0.00000
3.453,-0.00243,-0.00674,-0.00389,0.03221,-0.03101,0.96934,43.443,43.911,42.546,44.774,-1.99413,-1.90699,-0.00000
3.463,-0.00245,-0.00669,-0.00386,0.03225,-0.03147,0.96572,43.443,43.911,42.546,45.106,-1.99273,-1.90706,-0.00000
3.473,-0.00242,-0.00667,-0.00385,0.03054,-0.03838,0.96587,43.443,43.911,42.546,45.216,-1.99579,-1.90601,-0.00000
3.483,-0.00236,-0.00665,-0.00385,0.03522,-0.03420,0.97001,43.443,43.911,42.546,45.327,-1.99603,-1.90789,-0.00000
3.493,-0.00231,-0.00667,-0.00384,0.03471,-0.03104,0.96993,43.443,43.911,42.546,45.216,-1.99425,-1.90943,-0.00000
3.503,-0.00232,-0.00664,-0.00385,0.03557,-0.03358,0.97200,43.443,43.911,42.546,45.216,-1.99406,-1.91145,-0.00000
3.513,-0.00231,-0.00661,-0.00383,0.03463,-0.03381,0.97044,43.443,43.911,42.546,45.216,-1.99407,-1.91289,-0.00000
3.523,-0.00227,-0.00659,-0.00382,0.03104,-0.03264,0.96923,43.443,43.911,42.546,45.106,-1.99335,-1.91204,-0.00000
3.533,-0.00227,-0.00663,-0.00382,0.03026,-0.03385,0.97087,43.436,43.911,42.546,44.885,-1.99338,-1.91066,-0.00000
3.543,-0.00228,-0.00672,-0.00383,0.03908,-0.03654,0.97250,43.436,43.911,42.546,44.995,-1.99508,-1.91490,-0.00000
3.553,-0.00229,-0.00675,-0.00384,0.03058,-0.03323,0.97192,43.436,43.911,42.546,45.106,-1.99467,-1.91367,-0.00000
3.563,-0.00226,-0.00668,-0.00384,0.03498,-0.02995,0.96974,43.436,43.911,42.546,45.216,-1.99221,-1.91533,-0.00000
3.573,-0.00223,-0.00660,-0.00385,0.02941,-0.03409,0.97262,43.436,43.911,42.546,45.327,-1.99236,-1.91334,-0.00000
3.583,-0.00224,-0.00659,-0.00384,0.03311,-0.04033,0.96876,43.436,43.911,42.533,45.106,-1.99659,-1.91381,-0.00000
3.593,-0.00218,-0.00668,-0.00386,0.03253,-0.03459,0.96942,43.436,43.911,42.533,45.216,-1.99709,-1.91390,-0.00000
3.603,-0.00215,-0.00676,-0.00387,0.03896,-0.03116,0.96825,43.436,43.911,42.533,44.995,-1.99540,-1.91814,-0.00000
3.613,-0.00216,-0.00681,-0.00387,0.03171,-0.03346,0.97192,43.436,43.911,42.533,44.885,-1.99514,-1.91760,-0.00000
3.623,-0.00219,-0.00681,-0.00388,0.03373,-0.03331,0.96923,43.436,43.911,42.533,44.995,-1.99483,-1.91842,-0.00000
3.633,-0.00217,-0.00683,-0.00386,0.03370,-0.03510,0.96782,43.436,43.932,42.533,45.106,-1.99571,-1.91924,-0.00000
3.643,-0.00217,-0.00688,-0.00385,0.03619,-0.03545,0.96802,43.436,43.932,42.533,44.885,-1.99680,-1.92165,-0.00000
3.653,-0.00220,-0.00695,-0.00386,0.02878,-0.03405,0.96708,43.436,43.932,42.533,45.106,-1.99700,-1.91929,-0.00000
3.663,-0.00218,-0.00694,-0.00389,0.03019,-0.03167,0.96934,43.436,43.932,42.533,45.106,-1.99562,-1.91782,-0.00000
3.673,-0.00219,-0.00685,-0.00388,0.03514,-0.03233,0.96864,43.436,43.932,42.533,45.216,-1.99470,-1.91956,-0.00000
3.683,-0.00220,-0.00682,-0.00389,0.03163,-0.03190,0.97001,43.436,43.932,42.533,44.885,-1.99348,-1.91899,-0.00000
3.693,-0.00222,-0.00685,-0.00389,0.03186,-0.03022,0.96763,43.436,43.932,42.533,44.885,-1.99126,-1.91863,-0.00000
3.703,-0.00222,-0.00692,-0.00388,0.03257,-0.03510,0.97083,43.436,43.932,42.533,45.216,-1.99210,-1.91866,-0.00000
3.713,-0.00218,-0.00692,-0.00388,0.03689,-0.03393,0.97531,43.436,43.932,42.533,45.106,-1.99209,-1.92135,-0.00000
3.723,-0.00218,-0.00683,-0.00388,0.03120,-0.03104,0.97547,43.436,43.932,42.533,44.885,-1.99025,-1.92038,-0.00000
3.733,-0.00217,-0.00675,-0.00386,0.03093,-0.03467,0.96814,43.443,43.932,42.533,44.995,-1.99089,-1.91940,-0.00000
3.743,-0.00223,-0.00673,-0.00384,0.03163,-0.03315,0.97133,43.443,43.932,42.533,44.995,-1.99049,-1.91881,-0.00000
3.753,-0.00224,-0.00681,-0.00383,0.03186,-0.03104,0.96911,43.443,43.932,42.533,45.216,-1.98879,-1.91842,-0.00000
3.763,-0.00225,-0.00683,-0.00382,0.03085,-0.03311,0.97044,43.443,43.932,42.533,45.106,-1.98840,-1.91736,-0.00000
3.773,-0.00228,-0.00678,-0.00382,0.03101,-0.03284,0.97071,43.443,43.932,42.533,45.106,-1.98784,-1.91640,-0.00000
3.783,-0.00230,-0.00672,-0.00381,0.03518,-0.03592,0.97250,43.443,43.932,42.489,45.216,-1.98921,-1.91809,-0.00000
3.793,-0.00234,-0.00669,-0.00378,0.02863,-0.03362,0.96755,43.443,43.932,42.489,45.216,-1.98920,-1.91566,-0.00000
3.803,-0.00234,-0.00670,-0.00377,0.03198,-0.03455,0.97360,43.443,43.932,42.489,44.995,-1.98966,-1.91529,-0.00000
3.813,-0.00235,-0.00669,-0.00375,0.03385,-0.03483,0.97285,43.443,43.932,42.489,45.327,-1.99031,-1.91613,-0.00000
3.823,-0.00234,-0.00664,-0.00375,0.03272,-0.03323,0.97172,43.443,43.932,42.489,45.216,-1.98995,-1.91627,-0.00000
3.833,-0.00235,-0.00655,-0.00373,0.03502,-0.03732,0.96736,43.443,43.868,42.489,45.106,-1.99232,-1.91797,-0.00000
3.843,-0.00238,-0.00650,-0.00373,0.03342,-0.03221,0.97071,43.443,43.868,42.489,44.885,-1.99131,-1.91856,-0.00000
3.853,-0.00238,-0.00652,-0.00375,0.02905,-0.03732,0.97235,43.443,43.868,42.489,45.327,-1.99355,-1.91631,-0.00000
3.863,-0.00245,-0.00660,-0.00377,0.03775,-0.03132,0.96919,43.443,43.868,42.489,45.106,-1.99198,-1.91973,-0.00000
3.873,-0.00239,-0.00661,-0.00379,0.03101,-0.03498,0.96837,43.443,43.868,42.489,45.216,-1.99280,-1.91879,-0.00000
3.883,-0.00239,-0.00652,-0.00380,0.03479,-0.03019,0.97168,43.443,43.868,42.489,44.995,-1.99048,-1.92022,-0.00000
3.893,-0.00245,-0.00645,-0.00382,0.03241,-0.03108,0.96892,43.443,43.868,42.489,44.995,-1.98880,-1.92017,-0.00000
3.903,-0.00245,-0.00642,-0.00385,0.03580,-0.03151,0.96903,43.443,43.868,42.489,45.216,-1.98742,-1.92230,-0.00000
3.913,-0.00248,-0.00648,-0.00385,0.02960,-0.03526,0.97188,43.443,43.868,42.489,45.106,-1.98839,-1.92037,-0.00000
3.923,-0.00252,-0.00654,-0.00384,0.03085,-0.03884,0.96771,43.443,43.868,42.489,44.995,-1.99174,-1.91934,-0.00000
3.933,-0.00256,-0.00656,-0.00382,0.03377,-0.03151,0.97075,43.450,43.868,42.489,45.106,-1.99029,-1.92014,-0.00000
3.943,-0.00259,-0.00658,-0.00383,0.03393,-0.02800,0.96872,43.450,43.868,42.489,44.885,-1.98665,-1.92107,-0.00000
3.953,-0.00264,-0.00661,-0.00385,0.03198,-0.03354,0.97001,43.450,43.868,42.489,45.216,-1.98657,-1.92071,-0.00000
3.963,-0.00270,-0.00671,-0.00388,0.03034,-0.03471,0.97133,43.450,43.868,42.489,44.995,-1.98721,-1.91929,-0.00000
3.973,-0.00271,-0.00683,-0.00389,0.02699,-0.03338,0.97153,43.450,43.868,42.489,44.995,-1.98699,-1.91573,-0.00000
3.983,-0.00273,-0.00684,-0.00388,0.03206,-0.03175,0.97028,43.450,43.868,42.532,44.995,-1.98576,-1.91547,-0.00000
3.993,-0.00270,-0.00679,-0.00389,0.03292,-0.03358,0.97442,43.450,43.868,42.532,45.106,-1.98561,-1.91568,-0.00000
4.003,-0.00273,-0.00676,-0.00389,0.03370,-0.03834,0.97118,43.450,43.868,42.532,45.216,-1.98858,-1.91646,-0.00000
4.013,-0.00272,-0.00676,-0.00390,0.03272,-0.02944,0.96872,43.450,43.868,42.532,45.216,-1.98588,-1.91665,-0.00000
4.023,-0.00271,-0.00681,-0.00388,0.02902,-0.03319,0.97067,43.450,43.868,42.532,45.216,-1.98558,-1.91444,-0.00000
4.033,-0.00274,-0.00686,-0.00388,0.03171,-0.03272,0.96938,43.450,43.915,42.532,45.106,-1.98500,-1.91399,-0.00000
4.043,-0.00274,-0.00682,-0.00388,0.03568,-0.03405,0.96544,43.450,43.915,42.532,45.216,-1.98536,-1.91619,-0.00000
4.053,-0.00275,-0.00677,-0.00391,0.02921,-0.03101,0.96884,43.450,43.915,42.532,44.995,-1.98370,-1.91414,-0.00000
4.063,-0.00276,-0.00672,-0.00392,0.03015,-0.03139,0.97067,43.450,43.915,42.532,45.216,-1.98226,-1.91267,-0.00000
4.073,-0.00275,-0.00670,-0.00389,0.03268,-0.03366,0.96895,43.450,43.915,42.532,45.216,-1.98233,-1.91288,-0.00000
4.083,-0.00276,-0.00668,-0.00385,0.03307,-0.02999,0.96720,43.450,43.915,42.532,45.216,-1.98008,-1.91337,-0.00000
4.093,-0.00278,-0.00660,-0.00380,0.03334,-0.03572,0.97048,43.450,43.915,42.532,45.216,-1.98145,-1.91396,-0.00000
4.103,-0.00277,-0.00649,-0.00378,0.03662,-0.03058,0.96962,43.450,43.915,42.532,45.106,-1.97954,-1.91666,-0.00000
4.113,-0.00278,-0.00644,-0.00377,0.03241,-0.02687,0.96755,43.450,43.915,42.532,45.216,-1.97531,-1.91668,-0.00000
4.123,-0.00278,-0.00640,-0.00376,0.03120,-0.03085,0.96989,43.450,43.915,42.532,45.216,-1.97363,-1.91588,-0.00000
4.133,-0.00275,-0.00641,-0.00378,0.03171,-0.03413,0.96895,43.447,43.915,42.532,45.216,-1.97409,-1.91543,-0.00000
4.143,-0.00278,-0.00643,-0.00378,0.02980,-0.03533,0.96619,43.447,43.915,42.532,45.216,-1.97539,-1.91381,-0.00000
4.153,-0.00277,-0.00640,-0.00382,0.03046,-0.03561,0.97028,43.447,43.915,42.532,44.995,-1.97675,-1.91255,-0.00000
4.163,-0.00272,-0.00636,-0.00382,0.03420,-0.03689,0.97020,43.447,43.915,42.532,44.995,-1.97891,-1.91371,-0.00000
4.173,-0.00269,-0.00634,-0.00382,0.03190,-0.03549,0.96962,43.447,43.915,42.532,44.885,-1.98017,-1.91339,-0.00000
4.183,-0.00265,-0.00637,-0.00382,0.03015,-0.03202,0.96997,43.447,43.915,42.508,45.327,-1.97919,-1.91194,-0.00000
4.193,-0.00265,-0.00643,-0.00385,0.03186,-0.03810,0.97305,43.447,43.915,42.508,45.216,-1.98204,-1.91155,-0.00000
4.203,-0.00265,-0.00644,-0.00388,0.03182,-0.03327,0.97009,43.447,43.915,42.508,44.885,-1.98183,-1.91120,-0.00000
4.213,-0.00264,-0.00644,-0.00390,0.03233,-0.03744,0.96927,43.447,43.915,42.508,44.885,-1.98432,-1.91119,-0.00000
4.223,-0.00264,-0.00644,-0.00394,0.03264,-0.03592,0.96942,43.447,43.915,42.508,44.995,-1.98580,-1.91138,-0.00000
4.233,-0.00268,-0.00645,-0.00395,0.03557,-0.03155,0.96977,43.447,43.920,42.508,44.885,-1.98446,-1.91343,-0.00000
4.243,-0.00271,-0.00649,-0.00397,0.03003,-0.03401,0.97067,43.447,43.920,42.508,45.106,-1.98468,-1.91189,-0.00000
4.253,-0.00273,-0.00655,-0.00398,0.03081,-0.03869,0.97052,43.447,43.920,42.508,45.216,-1.98791,-1.91088,-0.00000
4.263,-0.00268,-0.00655,-0.00400,0.03479,-0.03385,0.96954,43.447,43.920,42.508,44.995,-1.98802,-1.91244,-0.00000
4.273,-0.00268,-0.00650,-0.00401,0.03128,-0.03295,0.96786,43.447,43.920,42.508,45.216,-1.98760,-1.91177,-0.00000
4.283,-0.00270,-0.00648,-0.00402,0.02894,-0.03413,0.97250,43.447,43.920,42.508,44.995,-1.98783,-1.90952,-0.00000
4.293,-0.00273,-0.00653,-0.00402,0.03077,-0.03713,0.97325,43.447,43.920,42.508,45.106,-1.98995,-1.90845,-0.00000
4.303,-0.00282,-0.00663,-0.00405,0.03487,-0.03167,0.97297,43.447,43.920,42.508,45.216,-1.98858,-1.91001,-0.00000
4.313,-0.00285,-0.00665,-0.00407,0.03506,-0.03097,0.96747,43.447,43.920,42.508,44.995,-1.98688,-1.91181,-0.00000
4.323,-0.00286,-0.00662,-0.00405,0.03065,-0.03506,0.97239,43.447,43.920,42.508,44.995,-1.98771,-1.91066,-0.00000
4.333,-0.00289,-0.00662,-0.00403,0.03393,-0.02863,0.96958,43.444,43.920,42.508,44.995,-1.98448,-1.91167,-0.00000
4.343,-0.00291,-0.00663,-0.00402,0.03487,-0.03237,0.96728,43.444,43.920,42.508,44.995,-1.98373,-1.91333,-0.00000
4.353,-0.00290,-0.00666,-0.00402,0.03147,-0.03666,0.97114,43.444,43.920,42.508,45.106,-1.98566,-1.91271,-0.00000
4.363,-0.00290,-0.00668,-0.00400,0.03007,-0.02921,0.96931,43.444,43.920,42.508,45.216,-1.98283,-1.91124,-0.00000
4.373,-0.00292,-0.00665,-0.00397,0.03377,-0.02894,0.97044,43.444,43.920,42.508,45.106,-1.97984,-1.91213,-0.00000
4.383,-0.00293,-0.00660,-0.00395,0.03529,-0.03342,0.96946,43.444,43.920,42.533,44.995,-1.97977,-1.91400,-0.00000
4.393,-0.00298,-0.00657,-0.00393,0.03350,-0.03491,0.96868,43.444,43.920,42.533,45.216,-1.98066,-1.91473,-0.00000
4.403,-0.00297,-0.00662,-0.00394,0.03452,-0.03584,0.96946,43.444,43.920,42.533,45.327,-1.98213,-1.91607,-0.00000
4.413,-0.00294,-0.00668,-0.00395,0.02999,-0.03545,0.97024,43.444,43.920,42.533,44.995,-1.98332,-1.91449,-0.00000
4.423,-0.00294,-0.00665,-0.00395,0.03444,-0.03233,0.96790,43.444,43.920,42.533,44.995,-1.98254,-1.91583,-0.00000
4.433,-0.00289,-0.00656,-0.00395,0.03132,-0.03619,0.97305,43.444,43.932,42.533,44.885,-1.98413,-1.91504,-0.00000
4.443,-0.00286,-0.00652,-0.00395,0.03600,-0.03713,0.96923,43.444,43.932,42.533,45.106,-1.98639,-1.91734,-0.00000
4.453,-0.00288,-0.00650,-0.00398,0.03783,-0.03440,0.96779,43.444,43.932,42.533,44.995,-1.98691,-1.92083,-0.00000
4.463,-0.00288,-0.00654,-0.00399,0.03370,-0.03381,0.96974,43.444,43.932,42.533,45.106,-1.98701,-1.92158,-0.00000
4.473,-0.00286,-0.00655,-0.00399,0.03393,-0.03155,0.96845,43.444,43.932,42.533,44.995,-1.98568,-1.92250,-0.00000
4.483,-0.00286,-0.00654,-0.00399,0.03491,-0.03377,0.97036,43.444,43.932,42.533,45.216,-1.98575,-1.92400,-0.00000
4.493,-0.00288,-0.00652,-0.00399,0.03038,-0.03853,0.97013,43.444,43.932,42.533,44.995,-1.98887,-1.92258,-0.00000
4.503,-0.00290,-0.00653,-0.00400,0.03475,-0.03475,0.96849,43.444,43.932,42.533,44.995,-1.98957,-1.92402,-0.00000
4.513,-0.00288,-0.00659,-0.00399,0.03682,-0.03327,0.96911,43.444,43.932,42.533,45.106,-1.98930,-1.92675,-0.00000
4.523,-0.00292,-0.00664,-0.00397,0.03405,-0.02543,0.97016,43.444,43.932,42.533,44.995,-1.98400,-1.92765,-0.00000
4.533,-0.00292,-0.00662,-0.00395,0.02948,-0.03233,0.96970,43.440,43.932,42.533,45.216,-1.98318,-1.92563,-0.00000
4.543,-0.00290,-0.00655,-0.00392,0.03436,-0.03397,0.97079,43.440,43.932,42.533,45.216,-1.98339,-1.92673,-0.00000
4.553,-0.00289,-0.00652,-0.00392,0.03377,-0.03190,0.96868,43.440,43.932,42.533,44.995,-1.98233,-1.92749,-0.00000
4.563,-0.00288,-0.00654,-0.00392,0.03124,-0.03487,0.97426,43.440,43.932,42.533,44.995,-1.98305,-1.92651,-0.00000
4.573,-0.00285,-0.00655,-0.00390,0.02765,-0.03506,0.97133,43.440,43.932,42.533,45.216,-1.98395,-1.92329,-0.00000
4.583,-0.00282,-0.00654,-0.00389,0.03483,-0.03845,0.96997,43.440,43.932,42.511,45.106,-1.98704,-1.92474,-0.00000
4.593,-0.00277,-0.00650,-0.00388,0.03155,-0.03190,0.97289,43.440,43.932,42.511,44.995,-1.98585,-1.92401,-0.00000
4.603,-0.00276,-0.00648,-0.00387,0.02987,-0.03565,0.96938,43.440,43.932,42.511,44.995,-1.98714,-1.92228,-0.00000
4.613,-0.00278,-0.00648,-0.00384,0.03315,-0.03607,0.97227,43.440,43.932,42.511,44.995,-1.98862,-1.92261,-0.00000
4.623,-0.00278,-0.00650,-0.00382,0.03112,-0.03370,0.97106,43.440,43.932,42.511,45.106,-1.98860,-1.92167,-0.00000
4.633,-0.00275,-0.00655,-0.00382,0.02781,-0.03280,0.96732,43.440,43.824,42.511,45.106,-1.98808,-1.91869,-0.00000
4.643,-0.00275,-0.00652,-0.00382,0.03479,-0.03034,0.96611,43.440,43.824,42.511,45.106,-1.98602,-1.92024,-0.00000
4.653,-0.00274,-0.00649,-0.00382,0.03077,-0.03366,0.96587,43.440,43.824,42.511,45.106,-1.98611,-1.91921,-0.00000
4.663,-0.00279,-0.00648,-0.00381,0.03771,-0.03373,0.97133,43.440,43.824,42.511,44.995,-1.98613,-1.92251,-0.00000
4.673,-0.00288,-0.00654,-0.00380,0.03592,-0.03549,0.96833,43.440,43.824,42.511,44.885,-1.98734,-1.92470,-0.00000
4.683,-0.00289,-0.00665,-0.00380,0.03354,-0.03588,0.97457,43.440,43.824,42.511,45.216,-1.98864,-1.92520,-0.00000
4.693,-0.00286,-0.00668,-0.00380,0.02738,-0.03260,0.97282,43.440,43.824,42.511,44.995,-1.98788,-1.92180,-0.00000
4.703,-0.00291,-0.00668,-0.00381,0.03381,-0.03475,0.97364,43.440,43.824,42.511,45.216,-1.98848,-1.92253,-0.00000
4.713,-0.00294,-0.00670,-0.00382,0.03011,-0.03295,0.97184,43.440,43.824,42.511,45.106,-1.98796,-1.92093,-0.00000
4.723,-0.00298,-0.00675,-0.00383,0.03647,-0.03853,0.96895,43.440,43.824,42.511,45.327,-1.99109,-1.92347,-0.00000
4.733,-0.00300,-0.00685,-0.00385,0.03592,-0.03596,0.97087,43.433,43.824,42.511,45.216,-1.99248,-1.92559,-0.00000
4.743,-0.00301,-0.00692,-0.00388,0.03171,-0.03393,0.96958,43.433,43.824,42.511,44.995,-1.99260,-1.92502,-0.00000
4.753,-0.00300,-0.00692,-0.00388,0.03284,-0.03377,0.96923,43.433,43.824,42.511,45.216,-1.99262,-1.92519,-0.00000
4.763,-0.00302,-0.00688,-0.00387,0.03510,-0.03666,0.97270,43.433,43.824,42.511,45.216,-1.99440,-1.92672,-0.00000
4.773,-0.00303,-0.00688,-0.00386,0.03202,-0.03537,0.96720,43.433,43.824,42.511,44.995,-1.99548,-1.92639,-0.00000
4.783,-0.00302,-0.00698,-0.00383,0.02761,-0.03303,0.97442,43.433,43.824,42.529,45.106,-1.99488,-1.92310,-0.00000
4.793,-0.00299,-0.00704,-0.00378,0.03225,-0.03736,0.97180,43.433,43.824,42.529,44.995,-1.99711,-1.92286,-0.00000
4.803,-0.00294,-0.00700,-0.00374,0.03085,-0.03198,0.97020,43.433,43.824,42.529,44.885,-1.99592,-1.92175,-0.00000
4.813,-0.00294,-0.00690,-0.00370,0.02839,-0.03584,0.97044,43.433,43.824,42.529,45.106,-1.99720,-1.91908,-0.00000
4.823,-0.00295,-0.00683,-0.00368,0.03104,-0.03323,0.96599,43.433,43.824,42.529,45.106,-1.99690,-1.91823,-0.00000
4.833,-0.00295,-0.00682,-0.00367,0.03249,-0.03483,0.96938,43.433,43.892,42.529,44.995,-1.99754,-1.91825,-0.00000
4.843,-0.00293,-0.00681,-0.00366,0.02921,-0.03682,0.96638,43.433,43.892,42.529,44.995,-1.99953,-1.91622,-0.00000
4.853,-0.00292,-0.00675,-0.00368,0.03276,-0.03682,0.96810,43.433,43.892,42.529,44.995,-2.00145,-1.91646,-0.00000
4.863,-0.00293,-0.00661,-0.00368,0.02917,-0.03728,0.96853,43.433,43.892,42.529,44.885,-2.00365,-1.91438,-0.00000
4.873,-0.00288,-0.00653,-0.00368,0.03413,-0.03510,0.96977,43.433,43.892,42.529,44.995,-2.00438,-1.91548,-0.00000
4.883,-0.00288,-0.00649,-0.00368,0.03635,-0.03678,0.97161,43.433,43.892,42.529,44.995,-2.00614,-1.91794,-0.00000
4.893,-0.00284,-0.00650,-0.00366,0.03487,-0.03639,0.96833,43.433,43.892,42.529,45.216,-2.00771,-1.91950,-0.00000
4.903,-0.00285,-0.00652,-0.00363,0.03163,-0.03658,0.96977,43.433,43.892,42.529,44.774,-2.00935,-1.91895,-0.00000
4.913,-0.00292,-0.00643,-0.00362,0.03377,-0.03249,0.97352,43.433,43.892,42.529,45.106,-2.00828,-1.91968,-0.00000
4.923,-0.00294,-0.00636,-0.00362,0.02968,-0.03510,0.97075,43.433,43.892,42.529,45.106,-2.00894,-1.91786,-0.00000
4.933,-0.00296,-0.00632,-0.00362,0.03561,-0.03342,0.96880,43.435,43.892,42.529,44.995,-2.00857,-1.91988,-0.00000
4.943,-0.00297,-0.00632,-0.00362,0.03611,-0.03167,0.97184,43.435,43.892,42.529,45.106,-2.00701,-1.92215,-0.00000
4.953,-0.00297,-0.00634,-0.00362,0.03467,-0.03163,0.97071,43.435,43.892,42.529,45.106,-2.00547,-1.92348,-0.00000
4.963,-0.00295,-0.00633,-0.00362,0.03046,-0.03912,0.97048,43.435,43.892,42.529,45.106,-2.00874,-1.92212,-0.00000
4.973,-0.00292,-0.00632,-0.00361,0.03342,-0.03424,0.97087,43.435,43.892,42.529,45.216,-2.00885,-1.92266,-0.00000
4.983,-0.00290,-0.00632,-0.00357,0.03015,-0.03518,0.97036,43.435,43.892,42.525,44.995,-2.00957,-1.92110,-0.00000
4.993,-0.00288,-0.00631,-0.00354,0.03397,-0.03814,0.97442,43.435,43.892,42.525,45.327,-2.01208,-1.92192,-0.00000
5.003,-0.00290,-0.00636,-0.00352,0.03194,-0.03299,0.97426,43.435,43.892,42.525,45.216,-2.01128,-1.92144,-0.00000
5.013,-0.00292,-0.00642,-0.00350,0.03260,-0.03139,0.96849,43.435,43.892,42.525,45.106,-2.00959,-1.92152,-0.00000
5.023,-0.00296,-0.00641,-0.00350,0.03284,-0.03444,0.97149,43.435,43.892,42.525,44.995,-2.00980,-1.92167,-0.00000
5.033,-0.00298,-0.00635,-0.00350,0.03397,-0.03097,0.96704,43.435,43.831,42.525,45.106,-2.00788,-1.92265,-0.00000
5.043,-0.00292,-0.00631,-0.00350,0.03097,-0.03319,0.96814,43.435,43.831,42.525,45.106,-2.00739,-1.92167,-0.00000
5.053,-0.00294,-0.00631,-0.00351,0.03307,-0.03366,0.97172,43.435,43.831,42.525,45.216,-2.00712,-1.92197,-0.00000
5.063,-0.00295,-0.00636,-0.00350,0.03253,-0.03311,0.96872,43.435,43.831,42.525,44.995,-2.00657,-1.92198,-0.00000
5.073,-0.00295,-0.00636,-0.00347,0.02874,-0.03011,0.97016,43.435,43.831,42.525,44.885,-2.00408,-1.91954,-0.00000
5.083,-0.00298,-0.00632,-0.00342,0.03506,-0.03253,0.97016,43.435,43.831,42.525,45.216,-2.00315,-1.92117,-0.00000
5.093,-0.00300,-0.00631,-0.00340,0.03315,-0.03225,0.96934,43.435,43.831,42.525,44.885,-2.00208,-1.92157,-0.00000
5.103,-0.00303,-0.00630,-0.00337,0.03662,-0.03218,0.96790,43.435,43.831,42.525,44.995,-2.00100,-1.92423,-0.00000
5.113,-0.00305,-0.00629,-0.00335,0.03206,-0.03927,0.97508,43.435,43.831,42.525,45.106,-2.00430,-1.92379,-0.00000
5.123,-0.00305,-0.00638,-0.00334,0.03026,-0.03315,0.97126,43.435,43.831,42.525,45.106,-2.00376,-1.92228,-0.00000
5.133,-0.00305,-0.00638,-0.00335,0.02995,-0.03358,0.97211,43.432,43.831,42.525,45.216,-2.00347,-1.92057,-0.00000
5.143,-0.00307,-0.00636,-0.00335,0.03596,-0.03136,0.97079,43.432,43.831,42.525,45.106,-2.00179,-1.92275,-0.00000
5.153,-0.00310,-0.00634,-0.00337,0.03529,-0.03502,0.96923,43.432,43.831,42.525,45.106,-2.00251,-1.92451,-0.00000
5.163,-0.00307,-0.00635,-0.00335,0.03506,-0.03366,0.96658,43.432,43.831,42.525,44.995,-2.00241,-1.92617,-0.00000
5.173,-0.00308,-0.00646,-0.00333,0.03549,-0.03697,0.96892,43.432,43.831,42.525,45.216,-2.00437,-1.92803,-0.00000
5.183,-0.00308,-0.00654,-0.00332,0.03054,-0.03030,0.96747,43.432,43.831,42.517,44.995,-2.00208,-1.92673,-0.00000
5.193,-0.00308,-0.00655,-0.00331,0.03280,-0.03397,0.96938,43.432,43.831,42.517,45.106,-2.00212,-1.92685,-0.00000
5.203,-0.00307,-0.00656,-0.00332,0.03424,-0.03073,0.97114,43.432,43.831,42.517,44.995,-2.00005,-1.92785,-0.00000
5.213,-0.00303,-0.00659,-0.00333,0.03136,-0.03046,0.96806,43.432,43.831,42.517,44.995,-1.99789,-1.92707,-0.00000
5.223,-0.00301,-0.00666,-0.00332,0.03030,-0.03190,0.96517,43.432,43.831,42.517,44.995,-1.99675,-1.92567,-0.00000
5.233,-0.00299,-0.00674,-0.00331,0.03042,-0.03030,0.97126,43.432,43.861,42.517,45.216,-1.99446,-1.92424,-0.00000
5.243,-0.00298,-0.00680,-0.00332,0.03292,-0.03580,0.96817,43.432,43.861,42.517,45.327,-1.99579,-1.92449,-0.00000
5.253,-0.00298,-0.00675,-0.00335,0.03237,-0.03120,0.96923,43.432,43.861,42.517,45.106,-1.99413,-1.92436,-0.00000
5.263,-0.00297,-0.00672,-0.00337,0.03015,-0.03038,0.97091,43.432,43.861,42.517,44.774,-1.99193,-1.92278,-0.00000
5.273,-0.00297,-0.00672,-0.00339,0.03541,-0.03549,0.97176,43.432,43.861,42.517,44.995,-1.99299,-1.92456,-0.00000
5.283,-0.00295,-0.00681,-0.00342,0.03338,-0.03565,0.97168,43.432,43.861,42.517,44.885,-1.99415,-1.92503,-0.00000
5.293,-0.00294,-0.00685,-0.00348,0.03210,-0.03498,0.97133,43.432,43.861,42.517,44.995,-1.99488,-1.92468,-0.00000
5.303,-0.00295,-0.00678,-0.00351,0.02870,-0.03498,0.96915,43.432,43.861,42.517,45.216,-1.99566,-1.92220,-0.00000
5.313,-0.00292,-0.00672,-0.00351,0.03171,-0.03604,0.97165,43.432,43.861,42.517,45.106,-1.99704,-1.92162,-0.00000
5.323,-0.00289,-0.00671,-0.00352,0.02917,-0.03346,0.96814,43.432,43.861,42.517,44.995,-1.99684,-1.91950,-0.00000
5.333,-0.00291,-0.00675,-0.00352,0.03182,-0.03533,0.97153,43.427,43.861,42.517,44.995,-1.99776,-1.91903,-0.00000
5.343,-0.00295,-0.00678,-0.00349,0.03081,-0.03342,0.97141,43.427,43.861,42.517,44.885,-1.99745,-1.91792,-0.00000
5.353,-0.00295,-0.00673,-0.00348,0.02991,-0.03467,0.97087,43.427,43.861,42.517,44.995,-1.99796,-1.91626,-0.00000
5.363,-0.00292,-0.00665,-0.00348,0.03334,-0.03537,0.96716,43.427,43.861,42.517,44.885,-1.99900,-1.91689,-0.00000
5.373,-0.00291,-0.00662,-0.00348,0.03073,-0.02937,0.96966,43.427,43.861,42.517,44.995,-1.99612,-1.91579,-0.00000
5.383,-0.00288,-0.00667,-0.00350,0.03366,-0.03221,0.96697,43.427,43.861,42.512,45.106,-1.99515,-1.91663,-0.00000
5.393,-0.00291,-0.00673,-0.00349,0.03502,-0.03179,0.96817,43.427,43.861,42.512,45.106,-1.99389,-1.91831,-0.00000
5.403,-0.00289,-0.00675,-0.00348,0.03315,-0.03373,0.96977,43.427,43.861,42.512,44.995,-1.99386,-1.91874,-0.00000
5.413,-0.00283,-0.00670,-0.00344,0.03202,-0.03167,0.97129,43.427,43.861,42.512,44.995,-1.99248,-1.91841,-0.00000
5.423,-0.00280,-0.00666,-0.00340,0.02812,-0.03604,0.96810,43.427,43.861,42.512,44.995,-1.99398,-1.91564,-0.00000
5.433,-0.00282,-0.00668,-0.00339,0.03136,-0.03147,0.96619,43.427,43.911,42.512,44.995,-1.99258,-1.91503,-0.00000
5.443,-0.00282,-0.00672,-0.00338,0.03549,-0.03510,0.96962,43.427,43.911,42.512,45.216,-1.99344,-1.91699,-0.00000
5.453,-0.00283,-0.00672,-0.00339,0.03241,-0.03565,0.97313,43.427,43.911,42.512,44.995,-1.99456,-1.91689,-0.00000
5.463,-0.00285,-0.00670,-0.00339,0.03163,-0.03233,0.96790,43.427,43.911,42.512,44.885,-1.99366,-1.91640,-0.00000
5.473,-0.00285,-0.00667,-0.00338,0.03163,-0.03600,0.97001,43.427,43.911,42.512,45.106,-1.99508,-1.91587,-0.00000
5.483,-0.00292,-0.00666,-0.00337,0.03362,-0.03210,0.96919,43.427,43.911,42.512,45.106,-1.99400,-1.91664,-0.00000
5.493,-0.00296,-0.00675,-0.00334,0.03311,-0.03631,0.97176,43.427,43.911,42.512,44.995,-1.99557,-1.91702,-0.00000
5.503,-0.00301,-0.00683,-0.00332,0.03568,-0.03342,0.96884,43.427,43.911,42.512,45.216,-1.99534,-1.91910,-0.00000
5.513,-0.00308,-0.00681,-0.00329,0.03428,-0.03151,0.96872,43.427,43.911,42.512,44.995,-1.99389,-1.92027,-0.00000
5.523,-0.00306,-0.00676,-0.00328,0.02972,-0.03346,0.96899,43.427,43.911,42.512,45.216,-1.99371,-1.91850,-0.00000
5.533,-0.00303,-0.00674,-0.00329,0.03218,-0.03483,0.97024,43.437,43.911,42.512,44.995,-1.99437,-1.91829,-0.00000
5.543,-0.00303,-0.00675,-0.00332,0.03241,-0.03307,0.97106,43.437,43.911,42.512,45.106,-1.99388,-1.91821,-0.00000
5.553,-0.00306,-0.00680,-0.00332,0.02796,-0.03373,0.97083,43.437,43.911,42.512,45.106,-1.99383,-1.91530,-0.00000
5.563,-0.00305,-0.00679,-0.00332,0.03101,-0.04134,0.96541,43.437,43.911,42.512,45.216,-1.99879,-1.91448,-0.00000
5.573,-0.00304,-0.00677,-0.00333,0.03405,-0.03491,0.96903,43.437,43.911,42.512,45.216,-1.99948,-1.91554,-0.00000
5.583,-0.00307,-0.00674,-0.00332,0.03572,-0.03030,0.97309,43.437,43.911,42.521,45.106,-1.99712,-1.91757,-0.00000
5.593,-0.00305,-0.00670,-0.00330,0.03292,-0.03128,0.97110,43.437,43.911,42.521,44.995,-1.99546,-1.91783,-0.00000
5.603,-0.00305,-0.00668,-0.00330,0.03159,-0.03276,0.97083,43.437,43.911,42.521,44.995,-1.99476,-1.91724,-0.00000
5.613,-0.00304,-0.00668,-0.00332,0.03362,-0.03413,0.96743,43.437,43.911,42.521,45.106,-1.99503,-1.91803,-0.00000
5.623,-0.00306,-0.00662,-0.00335,0.03151,-0.03319,0.96650,43.437,43.911,42.521,44.995,-1.99471,-1.91748,-0.00000
5.633,-0.00305,-0.00656,-0.00335,0.03073,-0.03147,0.96814,43.437,43.933,42.521,45.106,-1.99326,-1.91640,-0.00000
5.643,-0.00300,-0.00652,-0.00334,0.03175,-0.03498,0.96829,43.437,43.933,42.521,44.995,-1.99407,-1.91599,-0.00000
5.653,-0.00295,-0.00648,-0.00332,0.03432,-0.04001,0.96572,43.437,43.933,42.521,45.327,-1.99816,-1.91728,-0.00000
5.663,-0.00295,-0.00649,-0.00330,0.03108,-0.03108,0.96880,43.437,43.933,42.521,44.995,-1.99641,-1.91642,-0.00000
5.673,-0.00296,-0.00648,-0.00331,0.03295,-0.03315,0.97141,43.437,43.933,42.521,45.106,-1.99594,-1.91671,-0.00000
5.683,-0.00293,-0.00647,-0.00332,0.03050,-0.03370,0.96981,43.437,43.933,42.521,45.216,-1.99587,-1.91545,-0.00000
5.693,-0.00290,-0.00645,-0.00332,0.03381,-0.03420,0.96895,43.437,43.933,42.521,45.106,-1.99613,-1.91635,-0.00000
5.703,-0.00295,-0.00643,-0.00330,0.03315,-0.03736,0.96704,43.437,43.933,42.521,45.216,-1.99847,-1.91686,-0.00000
5.713,-0.00294,-0.00646,-0.00332,0.03073,-0.03307,0.97024,43.437,43.933,42.521,44.995,-1.99795,-1.91575,-0.00000
5.723,-0.00291,-0.00651,-0.00332,0.02816,-0.03568,0.96466,43.437,43.933,42.521,44.995,-1.99925,-1.91310,-0.00000
5.733,-0.00292,-0.00652,-0.00332,0.02800,-0.03319,0.97141,43.441,43.933,42.521,44.885,-1.99878,-1.91026,-0.00000
5.743,-0.00290,-0.00652,-0.00329,0.03373,-0.03229,0.97235,43.441,43.933,42.521,45.216,-1.99772,-1.91110,-0.00000
5.753,-0.00287,-0.00652,-0.00325,0.02824,-0.03034,0.96607,43.441,43.933,42.521,45.106,-1.99556,-1.90852,-0.00000
5.763,-0.00288,-0.00658,-0.00322,0.03089,-0.03627,0.96985,43.441,43.933,42.521,44.774,-1.99713,-1.90761,-0.00000
5.773,-0.00288,-0.00665,-0.00320,0.03163,-0.03272,0.97059,43.441,43.933,42.521,45.106,-1.99640,-1.90716,-0.00000
5.783,-0.00290,-0.00670,-0.00318,0.03073,-0.03245,0.97325,43.441,43.933,42.531,44.995,-1.99545,-1.90609,-0.00000
5.793,-0.00288,-0.00666,-0.00316,0.02898,-0.03233,0.97075,43.441,43.933,42.531,45.216,-1.99448,-1.90396,-0.00000
5.803,-0.00289,-0.00662,-0.00315,0.03420,-0.03179,0.96872,43.441,43.933,42.531,45.106,-1.99322,-1.90524,-0.00000
5.813,-0.00287,-0.00662,-0.00316,0.03303,-0.03315,0.97020,43.441,43.933,42.531,45.216,-1.99282,-1.90573,-0.00000
5.823,-0.00286,-0.00662,-0.00320,0.03389,-0.03264,0.96716,43.441,43.933,42.531,44.995,-1.99215,-1.90683,-0.00000
5.833,-0.00284,-0.00662,-0.00323,0.03315,-0.03514,0.97445,43.441,43.794,42.531,45.106,-1.99293,-1.90728,-0.00000
5.843,-0.00278,-0.00662,-0.00322,0.03327,-0.03354,0.97055,43.441,43.794,42.531,44.995,-1.99277,-1.90789,-0.00000
5.853,-0.00276,-0.00661,-0.00322,0.03471,-0.03623,0.96786,43.441,43.794,42.531,45.216,-1.99440,-1.90947,-0.00000
5.863,-0.00273,-0.00661,-0.00320,0.03389,-0.03155,0.97094,43.441,43.794,42.531,45.106,-1.99294,-1.91044,-0.00000
5.873,-0.00278,-0.00665,-0.00319,0.03436,-0.03647,0.97278,43.441,43.794,42.531,45.216,-1.99459,-1.91166,-0.00000
5.883,-0.00282,-0.00669,-0.00320,0.02991,-0.03069,0.96989,43.441,43.794,42.531,45.106,-1.99261,-1.91009,-0.00000
5.893,-0.00281,-0.00664,-0.00318,0.02718,-0.03050,0.96583,43.441,43.794,42.531,44.774,-1.99060,-1.90685,-0.00000
5.903,-0.00280,-0.00658,-0.00317,0.03299,-0.03346,0.96755,43.441,43.794,42.531,44.995,-1.99048,-1.90736,-0.00000
5.913,-0.00281,-0.00656,-0.00315,0.03159,-0.03264,0.96856,43.441,43.794,42.531,44.995,-1.98982,-1.90693,-0.00000
5.923,-0.00283,-0.00660,-0.00317,0.03081,-0.03058,0.96950,43.441,43.794,42.531,45.327,-1.98782,-1.90599,-0.00000
5.933,-0.00282,-0.00665,-0.00316,0.03120,-0.03132,0.97044,43.441,43.794,42.531,44.995,-1.98630,-1.90529,-0.00000
5.943,-0.00282,-0.00666,-0.00314,0.03163,-0.03545,0.96716,43.441,43.794,42.531,44.995,-1.98751,-1.90494,-0.00000
5.953,-0.00282,-0.00667,-0.00312,0.02968,-0.03635,0.96962,43.441,43.794,42.531,45.216,-1.98923,-1.90329,-0.00000
5.963,-0.00281,-0.00665,-0.00311,0.03881,-0.03366,0.96927,43.441,43.794,42.531,44.885,-1.98920,-1.90752,-0.00000
5.973,-0.00282,-0.00662,-0.00312,0.03315,-0.03401,0.96981,43.441,43.794,42.531,44.995,-1.98940,-1.90806,-0.00000
5.983,-0.00285,-0.00662,-0.00312,0.03467,-0.03841,0.97293,43.441,43.794,42.523,44.885,-1.99233,-1.90950,-0.00000
5.993,-0.00285,-0.00664,-0.00313,0.03276,-0.03452,0.96716,43.441,43.794,42.523,44.995,-1.99288,-1.90983,-0.00000
6.003,-0.00282,-0.00659,-0.00314,0.03221,-0.03584,0.96755,43.441,43.794,42.523,44.995,-1.99426,-1.90980,-0.00000
6.013,-0.00280,-0.00655,-0.00312,0.03179,-0.03424,0.96985,43.441,43.794,42.523,45.106,-1.99455,-1.90945,-0.00000
6.023,-0.00282,-0.00652,-0.00312,0.03124,-0.03139,0.97063,43.441,43.794,42.523,45.106,-1.99300,-1.90873,-0.00000
6.033,-0.00284,-0.00655,-0.00311,0.02757,-0.03003,0.96794,43.441,43.888,42.523,44.995,-1.99065,-1.90572,-0.00000
6.043,-0.00292,-0.00661,-0.00312,0.03802,-0.02960,0.97098,43.441,43.888,42.523,44.995,-1.98798,-1.90938,-0.00000
6.053,-0.00294,-0.00662,-0.00308,0.03424,-0.03237,0.97102,43.441,43.888,42.523,45.327,-1.98712,-1.91058,-0.00000
6.063,-0.00295,-0.00658,-0.00306,0.03214,-0.02921,0.97278,43.441,43.888,42.523,44.995,-1.98421,-1.91038,-0.00000
6.073,-0.00298,-0.00655,-0.00304,0.02905,-0.03093,0.96716,43.441,43.888,42.523,45.216,-1.98254,-1.90832,-0.00000
6.083,-0.00299,-0.00654,-0.00305,0.03350,-0.03549,0.97079,43.441,43.888,42.523,44.995,-1.98373,-1.90906,-0.00000
6.093,-0.00299,-0.00662,-0.00308,0.03514,-0.03409,0.96938,43.441,43.888,42.523,44.995,-1.98405,-1.91087,-0.00000
6.103,-0.00297,-0.00669,-0.00312,0.03143,-0.03022,0.96946,43.441,43.888,42.523,44.995,-1.98188,-1.91029,-0.00000
6.113,-0.00300,-0.00668,-0.00316,0.03225,-0.03526,0.96837,43.441,43.888,42.523,45.106,-1.98299,-1.91026,-0.00000
6.123,-0.00303,-0.00665,-0.00319,0.03241,-0.03409,0.97016,43.441,43.888,42.523,45.106,-1.98330,-1.91029,-0.00000
6.133,-0.00304,-0.00662,-0.00324,0.03693,-0.03572,0.96876,43.432,43.888,42.523,45.106,-1.98467,-1.91325,-0.00000
6.143,-0.00305,-0.00659,-0.00329,0.03136,-0.03093,0.97309,43.432,43.888,42.523,44.995,-1.98288,-1.91252,-0.00000
6.153,-0.00302,-0.00664,-0.00332,0.03299,-0.03650,0.97028,43.432,43.888,42.523,44.995,-1.98473,-1.91290,-0.00000
6.163,-0.00304,-0.00662,-0.00332,0.03198,-0.03327,0.97196,43.432,43.888,42.523,44.885,-1.98445,-1.91259,-0.00000
6.173,-0.00302,-0.00657,-0.00332,0.02987,-0.03034,0.96599,43.432,43.888,42.523,44.885,-1.98243,-1.91106,-0.00000
6.183,-0.00304,-0.00655,-0.00330,0.03257,-0.03295,0.97145,43.432,43.888,42.521,44.995,-1.98199,-1.91115,-0.00000
6.193,-0.00303,-0.00657,-0.00329,0.03116,-0.03358,0.96860,43.432,43.888,42.521,44.995,-1.98202,-1.91041,-0.00000
6.203,-0.00305,-0.00665,-0.00328,0.03120,-0.03381,0.96794,43.432,43.888,42.521,44.885,-1.98221,-1.90971,-0.00000
6.213,-0.00310,-0.00668,-0.00328,0.03116,-0.03338,0.97020,43.432,43.888,42.521,45.106,-1.98208,-1.90895,-0.00000
6.223,-0.00309,-0.00662,-0.00330,0.03463,-0.03857,0.96810,43.432,43.888,42.521,44.885,-1.98531,-1.91047,-0.00000
6.233,-0.00314,-0.00655,-0.00328,0.03264,-0.02788,0.96880,43.432,43.924,42.521,44.995,-1.98165,-1.91068,-0.00000
6.243,-0.00315,-0.00652,-0.00327,0.03003,-0.03405,0.97106,43.432,43.924,42.521,45.216,-1.98192,-1.90917,-0.00000
6.253,-0.00311,-0.00656,-0.00328,0.03155,-0.03276,0.97094,43.432,43.924,42.521,44.995,-1.98138,-1.90865,-0.00000
6.263,-0.00308,-0.00661,-0.00328,0.03030,-0.03424,0.96981,43.432,43.924,42.521,44.995,-1.98181,-1.90735,-0.00000
6.273,-0.00311,-0.00664,-0.00330,0.03420,-0.03370,0.96880,43.432,43.924,42.521,44.995,-1.98190,-1.90860,-0.00000
6.283,-0.00312,-0.00660,-0.00335,0.03101,-0.03424,0.96977,43.432,43.924,42.521,44.995,-1.98233,-1.90776,-0.00000
6.293,-0.00309,-0.00657,-0.00338,0.03576,-0.03416,0.97168,43.432,43.924,42.521,45.106,-1.98266,-1.90993,-0.00000
6.303,-0.00312,-0.00656,-0.00339,0.03163,-0.03128,0.96966,43.432,43.924,42.521,44.995,-1.98118,-1.90948,-0.00000
6.313,-0.00307,-0.00658,-0.00342,0.03085,-0.03689,0.96860,43.432,43.924,42.521,45.216,-1.98334,-1.90855,-0.00000
6.323,-0.00308,-0.00655,-0.00343,0.03331,-0.03927,0.96771,43.432,43.924,42.521,44.995,-1.98702,-1.90923,-0.00000
6.333,-0.00312,-0.00647,-0.00344,0.03260,-0.03159,0.97204,43.426,43.924,42.521,45.106,-1.98565,-1.90936,-0.00000
6.343,-0.00308,-0.00642,-0.00342,0.03221,-0.03607,0.97009,43.426,43.924,42.521,44.995,-1.98720,-1.90928,-0.00000
6.353,-0.00310,-0.00639,-0.00336,0.03210,-0.03202,0.96931,43.426,43.924,42.521,45.216,-1.98615,-1.90914,-0.00000
6.363,-0.00307,-0.00644,-0.00335,0.02566,-0.03373,0.97083,43.426,43.924,42.521,44.885,-1.98619,-1.90485,-0.00000
6.373,-0.00302,-0.00650,-0.00338,0.03295,-0.03428,0.97063,43.426,43.924,42.521,44.885,-1.98657,-1.90529,-0.00000
6.383,-0.00302,-0.00649,-0.00339,0.03237,-0.03331,0.96814,43.426,43.924,42.472,45.106,-1.98638,-1.90539,-0.00000
6.393,-0.00300,-0.00648,-0.00341,0.03362,-0.03401,0.96825,43.426,43.924,42.472,45.106,-1.98664,-1.90629,-0.00000
6.403,-0.00296,-0.00648,-0.00341,0.03487,-0.03424,0.97231,43.426,43.924,42.472,44.995,-1.98696,-1.90789,-0.00000
6.413,-0.00295,-0.00648,-0.00339,0.03175,-0.03311,0.97168,43.426,43.924,42.472,45.106,-1.98656,-1.90750,-0.00000
6.423,-0.00297,-0.00655,-0.00338,0.02972,-0.03413,0.96872,43.426,43.924,42.472,45.106,-1.98689,-1.90586,-0.00000
6.433,-0.00294,-0.00658,-0.00338,0.03065,-0.03580,0.96868,43.426,43.795,42.472,45.106,-1.98829,-1.90485,-0.00000
6.443,-0.00298,-0.00656,-0.00336,0.02999,-0.03420,0.96845,43.426,43.795,42.472,45.106,-1.98865,-1.90343,-0.00000
6.453,-0.00301,-0.00654,-0.00337,0.03202,-0.02882,0.96892,43.426,43.795,42.472,45.216,-1.98555,-1.90331,-0.00000
6.463,-0.00300,-0.00652,-0.00338,0.03280,-0.02902,0.96934,43.426,43.795,42.472,45.216,-1.98260,-1.90369,-0.00000
6.473,-0.00301,-0.00654,-0.00338,0.03171,-0.03600,0.97165,43.426,43.795,42.472,45.106,-1.98409,-1.90331,-0.00000
6.483,-0.00301,-0.00660,-0.00340,0.03210,-0.03097,0.96915,43.426,43.795,42.472,44.995,-1.98241,-1.90324,-0.00000
6.493,-0.00299,-0.00659,-0.00343,0.03373,-0.03432,0.97075,43.426,43.795,42.472,45.216,-1.98286,-1.90419,-0.00000
6.503,-0.00297,-0.00656,-0.00345,0.03241,-0.03186,0.97145,43.426,43.795,42.472,45.106,-1.98172,-1.90426,-0.00000
6.513,-0.00297,-0.00654,-0.00345,0.02917,-0.03787,0.96946,43.426,43.795,42.472,44.885,-1.98447,-1.90230,-0.00000
6.523,-0.00297,-0.00653,-0.00345,0.03015,-0.03814,0.97075,43.426,43.795,42.472,45.216,-1.98734,-1.90096,-0.00000
6.533,-0.00296,-0.00658,-0.00346,0.03225,-0.03112,0.97289,43.424,43.795,42.472,44.995,-1.98565,-1.90093,-0.00000
6.543,-0.00295,-0.00658,-0.00346,0.03163,-0.03233,0.96732,43.424,43.795,42.472,44.885,-1.98486,-1.90063,-0.00000
6.553,-0.00295,-0.00652,-0.00347,0.03366,-0.03260,0.97052,43.424,43.795,42.472,45.106,-1.98419,-1.90156,-0.00000
6.563,-0.00294,-0.00646,-0.00348,0.03288,-0.03736,0.96689,43.424,43.795,42.472,45.216,-1.98666,-1.90205,-0.00000
6.573,-0.00290,-0.00642,-0.00349,0.03104,-0.03381,0.96946,43.424,43.795,42.472,44.995,-1.98677,-1.90132,-0.00000
6.583,-0.00292,-0.00647,-0.00350,0.03619,-0.03054,0.96899,43.424,43.795,42.508,44.885,-1.98478,-1.90390,-0.00000
6.593,-0.00295,-0.00655,-0.00353,0.03377,-0.03479,0.97129,43.424,43.795,42.508,45.106,-1.98549,-1.90485,-0.00000
6.603,-0.00293,-0.00656,-0.00355,0.03249,-0.03877,0.97153,43.424,43.795,42.508,45.106,-1.98873,-1.90496,-0.00000
6.613,-0.00293,-0.00651,-0.00356,0.02816,-0.03249,0.96736,43.424,43.795,42.508,45.327,-1.98801,-1.90238,-0.00000
6.623,-0.00298,-0.00646,-0.00354,0.03529,-0.03241,0.96981,43.424,43.795,42.508,45.327,-1.98719,-1.90435,-0.00000
6.633,-0.00301,-0.00644,-0.00352,0.03448,-0.03179,0.97356,43.424,43.903,42.508,44.885,-1.98591,-1.90570,-0.00000
6.643,-0.00299,-0.00652,-0.00352,0.03292,-0.03389,0.97231,43.424,43.903,42.508,45.106,-1.98601,-1.90606,-0.00000
6.653,-0.00300,-0.00659,-0.00351,0.02629,-0.03865,0.96927,43.424,43.903,42.508,45.106,-1.98923,-1.90223,-0.00000
6.663,-0.00300,-0.00658,-0.00353,0.03362,-0.03576,0.97126,43.424,43.903,42.508,44.995,-1.99051,-1.90310,-0.00000
6.673,-0.00299,-0.00655,-0.00355,0.03143,-0.03471,0.96642,43.424,43.903,42.508,45.216,-1.99122,-1.90267,-0.00000
6.683,-0.00298,-0.00657,-0.00353,0.02987,-0.03112,0.96954,43.424,43.903,42.508,44.995,-1.98955,-1.90117,-0.00000
6.693,-0.00300,-0.00667,-0.00355,0.03627,-0.03264,0.97094,43.424,43.903,42.508,45.106,-1.98884,-1.90375,-0.00000
6.703,-0.00298,-0.00676,-0.00357,0.03175,-0.03323,0.97032,43.424,43.903,42.508,45.216,-1.98853,-1.90343,-0.00000
6.713,-0.00297,-0.00675,-0.00357,0.02960,-0.03132,0.97192,43.424,43.903,42.508,45.216,-1.98697,-1.90170,-0.00000
6.723,-0.00294,-0.00671,-0.00354,0.03401,-0.03167,0.97098,43.424,43.903,42.508,45.327,-1.98567,-1.90284,-0.00000
6.733,-0.00299,-0.00668,-0.00351,0.03112,-0.02952,0.96962,43.424,43.903,42.508,45.106,-1.98304,-1.90214,-0.00000
6.743,-0.00300,-0.00671,-0.00348,0.03194,-0.03299,0.96798,43.429,43.903,42.508,45.216,-1.98269,-1.90200,-0.00000
6.753,-0.00299,-0.00679,-0.00346,0.03175,-0.03467,0.96841,43.429,43.903,42.508,44.885,-1.98341,-1.90174,-0.00000
6.763,-0.00299,-0.00683,-0.00346,0.02894,-0.03210,0.96892,43.429,43.903,42.508,45.106,-1.98247,-1.89967,-0.00000
6.773,-0.00305,-0.00673,-0.00347,0.03198,-0.03179,0.96845,43.429,43.903,42.508,45.216,-1.98134,-1.89958,-0.00000
6.783,-0.00305,-0.00666,-0.00348,0.03405,-0.03186,0.97040,43.429,43.903,42.518,45.106,-1.98024,-1.90077,-0.00000
6.793,-0.00301,-0.00662,-0.00347,0.03257,-0.03619,0.97118,43.429,43.903,42.518,44.995,-1.98190,-1.90098,-0.00000
6.803,-0.00297,-0.00666,-0.00349,0.03007,-0.03557,0.96806,43.429,43.903,42.518,45.216,-1.98321,-1.89966,-0.00000
6.813,-0.00298,-0.00669,-0.00355,0.03354,-0.03432,0.97165,43.429,43.903,42.518,45.216,-1.98363,-1.90050,-0.00000
6.823,-0.00292,-0.00662,-0.00358,0.02812,-0.03541,0.97091,43.429,43.903,42.518,44.995,-1.98476,-1.89788,-0.00000
6.833,-0.00294,-0.00653,-0.00359,0.03241,-0.03865,0.96864,43.429,43.916,42.518,45.106,-1.98801,-1.89808,-0.00000
6.843,-0.00295,-0.00649,-0.00360,0.02999,-0.03678,0.96895,43.429,43.916,42.518,45.106,-1.99001,-1.89672,-0.00000
6.853,-0.00294,-0.00649,-0.00360,0.03073,-0.03518,0.97157,43.429,43.916,42.518,44.995,-1.99091,-1.89579,-0.00000
6.863,-0.00289,-0.00655,-0.00359,0.03186,-0.03358,0.96876,43.429,43.916,42.518,45.106,-1.99083,-1.89567,-0.00000
6.873,-0.00292,-0.00656,-0.00358,0.03097,-0.02960,0.97648,43.429,43.916,42.518,45.106,-1.98806,-1.89480,-0.00000
6.883,-0.00291,-0.00652,-0.00355,0.03112,-0.03245,0.96892,43.429,43.916,42.518,45.216,-1.98729,-1.89421,-0.00000
6.893,-0.00290,-0.00650,-0.00350,0.03206,-0.03225,0.97009,43.429,43.916,42.518,44.995,-1.98638,-1.89419,-0.00000
6.903,-0.00286,-0.00652,-0.00346,0.03257,-0.03471,0.97020,43.429,43.916,42.518,44.885,-1.98704,-1.89450,-0.00000
6.913,-0.00281,-0.00656,-0.00343,0.03190,-0.03190,0.97188,43.429,43.916,42.518,45.106,-1.98587,-1.89434,-0.00000
#2025/09/02 11:20:47
