#2025/08/25 17:51:33
time,wx, wy, wz, ax, ay, az, Tx, Ty, Tz, TAcc
0.013,-0.00010,0.00578,0.00192,0.03112,-0.02473,0.96342,38.063,38.095,37.097,39.360
0.023,-0.00015,0.00578,0.00169,0.02847,-0.03272,0.96720,38.063,38.095,37.097,39.139
0.033,-0.00019,0.00582,0.00142,0.03171,-0.02629,0.96919,38.063,37.869,37.097,39.360
0.043,-0.00055,0.00587,0.00129,0.02824,-0.02535,0.96938,38.063,37.869,37.097,39.139
0.053,-0.00068,0.00605,0.00129,0.02921,-0.02512,0.97118,38.063,37.869,37.097,39.249
0.063,-0.00091,0.00622,0.00142,0.02691,-0.02434,0.96412,38.063,37.869,37.097,39.360
0.073,-0.00082,0.00640,0.00151,0.02913,-0.03054,0.96985,38.063,37.869,37.097,39.249
0.083,-0.00077,0.00640,0.00156,0.03151,-0.02379,0.96701,38.063,37.869,37.097,39.360
0.093,-0.00068,0.00645,0.00160,0.02886,-0.02508,0.96638,38.063,37.869,37.097,39.249
0.103,-0.00028,0.00654,0.00151,0.02874,-0.02902,0.96829,38.063,37.869,37.097,39.360
0.113,-0.00033,0.00645,0.00129,0.02972,-0.02664,0.96716,38.063,37.869,37.097,39.360
0.123,-0.00028,0.00627,0.00111,0.02675,-0.02976,0.96884,38.063,37.869,37.097,39.360
0.133,-0.00006,0.00614,0.00089,0.02905,-0.02527,0.96541,38.063,37.869,37.097,39.139
0.143,-0.00002,0.00578,0.00093,0.02863,-0.02473,0.97102,38.063,37.869,37.097,39.249
0.153,-0.00024,0.00533,0.00111,0.02531,-0.02742,0.96509,38.063,37.869,37.097,39.360
0.163,-0.00051,0.00511,0.00133,0.02734,-0.02586,0.96743,38.063,37.869,37.097,39.249
0.173,-0.00024,0.00507,0.00138,0.02867,-0.02679,0.96974,38.063,37.869,37.097,39.249
0.183,-0.00006,0.00502,0.00133,0.03034,-0.02948,0.96619,38.063,37.869,37.115,39.139
0.193,-0.00006,0.00498,0.00129,0.02894,-0.02609,0.96143,38.063,37.869,37.115,39.249
0.203,-0.00023,0.00507,0.00125,0.03202,-0.02574,0.96275,38.063,37.869,37.115,39.360
0.213,-0.00028,0.00524,0.00125,0.03206,-0.02773,0.96868,38.063,37.869,37.115,39.249
0.223,-0.00032,0.00542,0.00120,0.02839,-0.02664,0.96938,38.063,37.869,37.115,39.360
0.233,-0.00055,0.00536,0.00138,0.03058,-0.02980,0.96853,38.063,38.029,37.115,39.360
0.243,-0.00059,0.00545,0.00160,0.02874,-0.02722,0.96728,38.063,38.029,37.115,39.249
0.253,-0.00059,0.00550,0.00174,0.03007,-0.02781,0.96856,38.063,38.029,37.115,39.139
0.263,-0.00046,0.00559,0.00196,0.02816,-0.02960,0.96841,38.063,38.029,37.115,39.139
0.273,-0.00055,0.00585,0.00187,0.02270,-0.02796,0.96708,38.063,38.029,37.115,39.139
0.283,-0.00041,0.00617,0.00165,0.02769,-0.02621,0.96704,38.063,38.029,37.115,39.139
0.293,-0.00019,0.00617,0.00147,0.02644,-0.02964,0.96689,38.063,38.029,37.115,39.249
0.303,-0.00001,0.00594,0.00147,0.02769,-0.02609,0.97141,38.063,38.029,37.115,39.360
0.313,-0.00019,0.00568,0.00151,0.03042,-0.02675,0.96665,38.063,38.029,37.115,39.139
0.323,-0.00010,0.00545,0.00151,0.02753,-0.02172,0.97356,38.063,38.029,37.115,39.360
0.333,0.00012,0.00532,0.00151,0.02863,-0.02516,0.96868,38.061,38.029,37.115,39.360
0.343,0.00003,0.00532,0.00143,0.02742,-0.02956,0.96825,38.061,38.029,37.115,39.360
0.353,0.00003,0.00527,0.00143,0.02449,-0.02847,0.96599,38.061,38.029,37.115,39.028
0.363,0.00017,0.00536,0.00143,0.03124,-0.02516,0.97040,38.061,38.029,37.115,39.139
0.373,0.00034,0.00532,0.00147,0.02714,-0.02796,0.96685,38.061,38.029,37.115,39.360
0.383,0.00039,0.00536,0.00151,0.02500,-0.02710,0.96864,38.061,38.029,37.112,39.249
0.393,0.00034,0.00536,0.00151,0.02055,-0.03038,0.97013,38.061,38.029,37.112,39.139
0.403,0.00066,0.00527,0.00169,0.02531,-0.02781,0.96552,38.061,38.029,37.112,39.139
0.413,0.00066,0.00523,0.00187,0.02839,-0.02839,0.96595,38.061,38.029,37.112,39.360
0.423,0.00088,0.00527,0.00192,0.02726,-0.02859,0.96693,38.061,38.029,37.112,39.360
0.433,0.00097,0.00526,0.00192,0.02664,-0.02831,0.96591,38.061,37.956,37.112,39.360
0.443,0.00110,0.00526,0.00196,0.02531,-0.03214,0.96970,38.061,37.956,37.112,39.139
0.453,0.00128,0.00535,0.00210,0.02726,-0.02894,0.96907,38.061,37.956,37.112,39.360
0.463,0.00128,0.00535,0.00223,0.03143,-0.02648,0.96689,38.061,37.956,37.112,39.360
0.473,0.00128,0.00535,0.00236,0.03214,-0.02605,0.96845,38.061,37.956,37.112,39.360
0.483,0.00150,0.00543,0.00236,0.02796,-0.02917,0.96970,38.061,37.956,37.112,39.360
0.493,0.00150,0.00530,0.00219,0.03112,-0.02621,0.96817,38.061,37.956,37.112,39.139
0.503,0.00132,0.00526,0.00205,0.02812,-0.03026,0.97083,38.061,37.956,37.112,39.139
0.513,0.00119,0.00521,0.00205,0.03030,-0.02648,0.96599,38.061,37.956,37.112,39.360
0.523,0.00128,0.00521,0.00201,0.03022,-0.02691,0.96934,38.061,37.956,37.112,39.249
0.533,0.00106,0.00526,0.00196,0.02660,-0.02625,0.97137,38.068,37.956,37.112,39.139
0.543,0.00115,0.00530,0.00205,0.02480,-0.02687,0.96794,38.068,37.956,37.112,39.139
0.553,0.00088,0.00539,0.00218,0.02855,-0.02804,0.96786,38.068,37.956,37.112,39.249
0.563,0.00079,0.00557,0.00227,0.02827,-0.02788,0.96662,38.068,37.956,37.112,39.249
0.573,0.00079,0.00561,0.00223,0.03315,-0.02765,0.96704,38.068,37.956,37.112,39.139
0.583,0.00074,0.00539,0.00209,0.02239,-0.02473,0.96868,38.068,37.956,37.094,39.028
0.593,0.00074,0.00535,0.00200,0.03026,-0.02582,0.96658,38.068,37.956,37.094,39.139
0.603,0.00092,0.00526,0.00196,0.02769,-0.02597,0.96856,38.068,37.956,37.094,39.139
0.613,0.00079,0.00521,0.00205,0.02707,-0.02223,0.96837,38.068,37.956,37.094,39.139
0.623,0.00056,0.00539,0.00218,0.02956,-0.02816,0.96662,38.068,37.956,37.094,39.139
0.633,0.00047,0.00554,0.00218,0.02586,-0.02765,0.96743,38.068,38.021,37.094,39.360
0.643,0.00043,0.00563,0.00205,0.02644,-0.02336,0.96767,38.068,38.021,37.094,39.249
0.653,0.00030,0.00554,0.00196,0.02582,-0.02648,0.97036,38.068,38.021,37.094,39.139
0.663,0.00030,0.00546,0.00191,0.03124,-0.02601,0.96724,38.068,38.021,37.094,39.249
0.673,0.00043,0.00546,0.00178,0.03077,-0.02644,0.96981,38.068,38.021,37.094,39.360
0.683,0.00052,0.00541,0.00165,0.03042,-0.02675,0.96841,38.068,38.021,37.094,39.139
0.693,0.00039,0.00546,0.00160,0.02582,-0.02769,0.96825,38.068,38.021,37.094,39.139
0.703,0.00030,0.00554,0.00160,0.02785,-0.02593,0.96638,38.068,38.021,37.094,39.139
0.713,0.00021,0.00586,0.00165,0.02847,-0.02613,0.96790,38.068,38.021,37.094,39.249
0.723,0.00007,0.00595,0.00169,0.02699,-0.02336,0.96786,38.068,38.021,37.094,39.139
0.733,0.00012,0.00595,0.00165,0.02597,-0.02652,0.96974,38.064,38.021,37.094,39.139
0.743,0.00016,0.00595,0.00156,0.02683,-0.02781,0.97075,38.064,38.021,37.094,39.249
0.753,0.00021,0.00590,0.00142,0.02808,-0.02359,0.96779,38.064,38.021,37.094,39.249
0.763,0.00030,0.00581,0.00147,0.02796,-0.02387,0.96915,38.064,38.021,37.094,39.139
0.773,0.00039,0.00559,0.00147,0.02551,-0.02734,0.96708,38.064,38.021,37.094,39.139
0.783,0.00034,0.00541,0.00160,0.02644,-0.02582,0.96934,38.064,38.021,37.115,39.139
0.793,0.00057,0.00519,0.00165,0.02890,-0.02765,0.96677,38.064,38.021,37.115,39.360
0.803,0.00052,0.00470,0.00156,0.02430,-0.02629,0.96634,38.064,38.021,37.115,39.470
0.813,0.00079,0.00416,0.00156,0.02703,-0.02543,0.97176,38.064,38.021,37.115,39.139
0.823,0.00132,0.00345,0.00156,0.02929,-0.02644,0.96958,38.064,38.021,37.115,39.139
0.833,0.00177,0.00256,0.00156,0.02543,-0.02551,0.96966,38.064,38.017,37.115,39.139
0.843,0.00239,0.00136,0.00156,0.02855,-0.02535,0.96884,38.064,38.017,37.115,39.139
0.853,0.00244,0.00060,0.00156,0.02593,-0.02215,0.96662,38.064,38.017,37.115,39.360
0.863,0.00199,0.00087,0.00174,0.02952,-0.02812,0.96291,38.064,38.017,37.115,39.360
0.873,0.00182,0.00145,0.00201,0.02808,-0.02348,0.96623,38.064,38.017,37.115,39.249
0.883,0.00168,0.00220,0.00232,0.02652,-0.02683,0.96767,38.064,38.017,37.115,39.139
0.893,0.00146,0.00283,0.00250,0.02859,-0.02703,0.96833,38.064,38.017,37.115,39.360
0.903,0.00132,0.00350,0.00285,0.03389,-0.02141,0.96626,38.064,38.017,37.115,39.360
0.913,0.00115,0.00399,0.00312,0.03077,-0.03069,0.96779,38.064,38.017,37.115,39.249
0.923,0.00043,0.00457,0.00335,0.02839,-0.02964,0.96895,38.064,38.017,37.115,39.139
0.933,-0.00015,0.00555,0.00357,0.02972,-0.02660,0.96923,38.071,38.017,37.115,39.139
0.943,-0.00090,0.00688,0.00366,0.03350,-0.02773,0.96771,38.071,38.017,37.115,39.360
0.953,-0.00184,0.00871,0.00384,0.02960,-0.02683,0.96872,38.071,38.017,37.115,39.360
0.963,-0.00300,0.01103,0.00410,0.02867,-0.02554,0.96872,38.071,38.017,37.115,39.249
0.973,-0.00438,0.01379,0.00433,0.02902,-0.02488,0.96728,38.071,38.017,37.115,39.470
0.983,-0.00505,0.01646,0.00451,0.02851,-0.02543,0.96966,38.071,38.017,37.115,39.470
0.993,-0.00558,0.01856,0.00446,0.02750,-0.02691,0.97032,38.071,38.017,37.115,39.360
1.003,-0.00616,0.02061,0.00419,0.02980,-0.02379,0.96923,38.071,38.017,37.115,39.139
1.013,-0.00661,0.02252,0.00384,0.02633,-0.02359,0.96806,38.071,38.017,37.115,39.028
1.023,-0.00710,0.02453,0.00330,0.02796,-0.02753,0.96607,38.071,38.017,37.115,39.470
1.033,-0.00794,0.02714,0.00249,0.02788,-0.02710,0.97235,38.071,38.069,37.115,39.360
1.043,-0.01044,0.03226,0.00151,0.02952,-0.02613,0.96876,38.071,38.069,37.115,39.139
1.053,-0.01249,0.04015,0.00035,0.02851,-0.02835,0.96100,38.071,38.069,37.115,39.249
1.063,-0.01445,0.04866,-0.00108,0.02578,-0.02609,0.96611,38.071,38.069,37.115,39.360
1.073,-0.01583,0.05691,-0.00269,0.03034,-0.02812,0.97157,38.071,38.069,37.115,39.360
1.083,-0.01752,0.06462,-0.00461,0.03007,-0.02827,0.96275,38.071,38.069,37.115,39.139
1.093,-0.01949,0.07197,-0.00640,0.02750,-0.02679,0.96892,38.071,38.069,37.115,39.470
1.103,-0.02064,0.07923,-0.00739,0.02718,-0.03416,0.96970,38.071,38.069,37.115,39.249
1.113,-0.02234,0.08520,-0.00757,0.02652,-0.03218,0.96295,38.071,38.069,37.115,39.360
1.123,-0.02314,0.08993,-0.00752,0.03019,-0.02804,0.96966,38.071,38.069,37.115,39.360
1.133,-0.02390,0.09349,-0.00761,0.02714,-0.02913,0.96767,38.064,38.069,37.115,39.249
1.143,-0.02501,0.09603,-0.00770,0.02800,-0.02851,0.96899,38.064,38.069,37.115,39.360
1.153,-0.02555,0.09777,-0.00729,0.02582,-0.02831,0.96915,38.064,38.069,37.115,39.139
1.163,-0.02555,0.09821,-0.00667,0.02324,-0.02929,0.96845,38.064,38.069,37.115,39.139
1.173,-0.02381,0.09581,-0.00613,0.02309,-0.02434,0.96934,38.064,38.069,37.115,39.249
1.183,-0.02180,0.09002,-0.00573,0.02660,-0.02133,0.97375,38.064,38.069,37.142,39.360
1.193,-0.01970,0.08275,-0.00492,0.02722,-0.02605,0.96322,38.064,38.069,37.142,39.360
1.203,-0.01810,0.07527,-0.00354,0.02769,-0.02831,0.96786,38.064,38.069,37.142,39.249
1.213,-0.01600,0.06787,-0.00180,0.03132,-0.02328,0.96747,38.064,38.069,37.142,39.139
1.223,-0.01342,0.06043,-0.00036,0.02305,-0.02605,0.96486,38.064,38.069,37.142,39.470
1.233,-0.01182,0.05281,0.00004,0.02742,-0.02718,0.96681,38.064,38.065,37.142,39.249
1.243,-0.00959,0.04595,-0.00005,0.02812,-0.02714,0.96767,38.064,38.065,37.142,39.139
1.253,-0.00812,0.03971,0.00017,0.02894,-0.02804,0.96747,38.064,38.065,37.142,39.249
1.263,-0.00674,0.03414,0.00102,0.02636,-0.02995,0.96931,38.064,38.065,37.142,39.249
1.273,-0.00522,0.02932,0.00174,0.02679,-0.03062,0.97278,38.064,38.065,37.142,39.139
1.283,-0.00442,0.02514,0.00169,0.02909,-0.02882,0.96576,38.064,38.065,37.142,39.139
1.293,-0.00371,0.02170,0.00120,0.03155,-0.03065,0.96747,38.064,38.065,37.142,39.249
1.303,-0.00295,0.01912,0.00084,0.02851,-0.02539,0.96537,38.064,38.065,37.142,39.139
1.313,-0.00259,0.01725,0.00093,0.03062,-0.02636,0.97079,38.064,38.065,37.142,39.139
1.323,-0.00250,0.01609,0.00107,0.02730,-0.02391,0.96541,38.064,38.065,37.142,39.139
1.333,-0.00241,0.01529,0.00084,0.02816,-0.02543,0.96346,38.067,38.065,37.142,39.139
1.343,-0.00215,0.01431,0.00057,0.02418,-0.02769,0.97118,38.067,38.065,37.142,39.249
1.353,-0.00170,0.01324,0.00075,0.02859,-0.02617,0.96650,38.067,38.065,37.142,39.139
1.363,-0.00143,0.01190,0.00138,0.03097,-0.02496,0.96751,38.067,38.065,37.142,39.249
1.373,-0.00108,0.01070,0.00174,0.03128,-0.02703,0.97052,38.067,38.065,37.142,39.249
1.383,-0.00077,0.00994,0.00151,0.02777,-0.02742,0.96814,38.067,38.065,37.099,39.249
1.393,-0.00055,0.00945,0.00098,0.02905,-0.02718,0.96923,38.067,38.065,37.099,39.360
1.403,-0.00042,0.00923,0.00080,0.02742,-0.02905,0.96642,38.067,38.065,37.099,39.139
1.413,-0.00010,0.00927,0.00120,0.03073,-0.02570,0.96275,38.067,38.065,37.099,39.249
1.423,0.00021,0.00936,0.00169,0.02391,-0.02855,0.96693,38.067,38.065,37.099,39.360
1.433,0.00034,0.00898,0.00200,0.02726,-0.02699,0.96767,38.067,38.125,37.099,39.249
1.443,0.00048,0.00836,0.00214,0.03104,-0.02430,0.96771,38.067,38.125,37.099,39.249
1.453,0.00074,0.00751,0.00236,0.02695,-0.02671,0.96903,38.067,38.125,37.099,39.360
1.463,0.00079,0.00653,0.00263,0.02605,-0.02722,0.96864,38.067,38.125,37.099,39.139
1.473,0.00034,0.00582,0.00263,0.02289,-0.02597,0.96591,38.067,38.125,37.099,39.360
1.483,0.00007,0.00546,0.00209,0.02894,-0.02441,0.96451,38.067,38.125,37.099,39.360
1.493,0.00012,0.00555,0.00147,0.02660,-0.02098,0.96642,38.067,38.125,37.099,39.360
1.503,-0.00019,0.00582,0.00129,0.02543,-0.02293,0.97040,38.067,38.125,37.099,39.139
1.513,-0.00010,0.00586,0.00147,0.02137,-0.02293,0.96958,38.067,38.125,37.099,39.360
1.523,-0.00010,0.00568,0.00160,0.02636,-0.02964,0.96977,38.067,38.125,37.099,39.139
1.533,0.00003,0.00542,0.00147,0.02812,-0.02644,0.97024,38.064,38.125,37.099,39.249
1.543,-0.00006,0.00515,0.00116,0.03097,-0.02882,0.96942,38.064,38.125,37.099,39.139
1.553,-0.00019,0.00493,0.00129,0.03159,-0.02944,0.97289,38.064,38.125,37.099,39.139
1.563,-0.00024,0.00506,0.00160,0.02406,-0.02461,0.96907,38.064,38.125,37.099,39.139
1.573,-0.00028,0.00533,0.00187,0.02902,-0.02566,0.96806,38.064,38.125,37.099,39.139
1.583,-0.00032,0.00577,0.00183,0.02422,-0.03030,0.97157,38.064,38.125,37.124,39.249
1.593,-0.00014,0.00617,0.00178,0.02675,-0.02738,0.96556,38.064,38.125,37.124,39.360
1.603,0.00026,0.00658,0.00196,0.02656,-0.02348,0.97024,38.064,38.125,37.124,39.470
1.613,0.00021,0.00684,0.00245,0.02734,-0.02609,0.96876,38.064,38.125,37.124,39.360
1.623,0.00035,0.00684,0.00277,0.02820,-0.02863,0.97063,38.064,38.125,37.124,39.360
1.633,0.00044,0.00665,0.00241,0.02812,-0.02504,0.96572,38.064,38.048,37.124,39.470
1.643,0.00008,0.00643,0.00196,0.03233,-0.02359,0.97052,38.064,38.048,37.124,39.360
1.653,0.00003,0.00643,0.00165,0.02519,-0.02999,0.96736,38.064,38.048,37.124,39.139
1.663,0.00003,0.00634,0.00165,0.02874,-0.02788,0.97001,38.064,38.048,37.124,39.249
1.673,0.00030,0.00634,0.00174,0.02480,-0.02671,0.97036,38.064,38.048,37.124,39.139
1.683,0.00017,0.00629,0.00165,0.02761,-0.03155,0.96740,38.064,38.048,37.124,39.360
1.693,0.00012,0.00611,0.00169,0.02730,-0.03186,0.96311,38.064,38.048,37.124,39.249
1.703,0.00021,0.00589,0.00187,0.02317,-0.02804,0.96977,38.064,38.048,37.124,39.360
1.713,0.00012,0.00562,0.00218,0.02835,-0.02613,0.96853,38.064,38.048,37.124,39.360
1.723,0.00030,0.00531,0.00236,0.02777,-0.02480,0.96763,38.064,38.048,37.124,39.360
1.733,0.00021,0.00500,0.00214,0.02691,-0.02500,0.96743,38.072,38.048,37.124,39.249
1.743,0.00012,0.00482,0.00169,0.02570,-0.02519,0.96658,38.072,38.048,37.124,39.249
1.753,-0.00019,0.00491,0.00155,0.02960,-0.02340,0.96833,38.072,38.048,37.124,39.249
1.763,-0.00019,0.00527,0.00187,0.03069,-0.02418,0.96907,38.072,38.048,37.124,39.139
1.773,-0.00001,0.00571,0.00223,0.02746,-0.02668,0.96513,38.072,38.048,37.124,39.249
1.783,0.00008,0.00607,0.00240,0.02827,-0.02714,0.96895,38.072,38.048,37.106,39.360
1.793,0.00021,0.00620,0.00231,0.02449,-0.02913,0.96989,38.072,38.048,37.106,39.360
1.803,0.00030,0.00602,0.00231,0.02800,-0.02687,0.96697,38.072,38.048,37.106,39.139
1.813,0.00097,0.00580,0.00245,0.03007,-0.02894,0.96771,38.072,38.048,37.106,39.139
1.823,0.00119,0.00562,0.00245,0.03128,-0.02465,0.96517,38.072,38.048,37.106,39.139
1.833,0.00114,0.00554,0.00236,0.02917,-0.02851,0.97024,38.072,38.153,37.106,39.360
1.843,0.00119,0.00563,0.00227,0.02574,-0.03303,0.96899,38.072,38.153,37.106,39.139
1.853,0.00065,0.00585,0.00227,0.02582,-0.02777,0.96817,38.072,38.153,37.106,39.139
1.863,0.00048,0.00608,0.00249,0.02894,-0.02578,0.96997,38.072,38.153,37.106,39.249
1.873,0.00057,0.00608,0.00272,0.02531,-0.02332,0.96623,38.072,38.153,37.106,39.360
1.883,0.00079,0.00590,0.00249,0.02847,-0.02547,0.96408,38.072,38.153,37.106,39.360
1.893,0.00065,0.00567,0.00200,0.03058,-0.02578,0.96942,38.072,38.153,37.106,39.249
1.903,0.00070,0.00554,0.00160,0.02964,-0.02613,0.96712,38.072,38.153,37.106,39.470
1.913,0.00043,0.00536,0.00151,0.02500,-0.02149,0.97075,38.072,38.153,37.106,39.249
1.923,0.00039,0.00554,0.00164,0.02769,-0.02359,0.96876,38.072,38.153,37.106,39.249
1.933,0.00043,0.00594,0.00165,0.02863,-0.02980,0.97048,38.069,38.153,37.106,39.360
1.943,0.00025,0.00621,0.00160,0.02679,-0.02820,0.96482,38.069,38.153,37.106,39.360
1.953,0.00034,0.00643,0.00169,0.02145,-0.02769,0.96669,38.069,38.153,37.106,39.249
1.963,0.00043,0.00661,0.00191,0.02726,-0.02987,0.96576,38.069,38.153,37.106,39.249
1.973,0.00052,0.00657,0.00205,0.02796,-0.02671,0.96654,38.069,38.153,37.106,39.360
1.983,0.00083,0.00634,0.00200,0.02699,-0.02812,0.97016,38.069,38.153,37.112,39.249
1.993,0.00092,0.00608,0.00182,0.03089,-0.02578,0.96634,38.069,38.153,37.112,39.249
2.003,0.00092,0.00590,0.00173,0.02941,-0.02874,0.97075,38.069,38.153,37.112,39.139
2.013,0.00066,0.00576,0.00187,0.02664,-0.02215,0.96962,38.069,38.153,37.112,39.028
2.023,0.00075,0.00567,0.00200,0.02738,-0.02543,0.96880,38.069,38.153,37.112,39.360
2.033,0.00061,0.00564,0.00191,0.02999,-0.02418,0.96455,38.069,38.114,37.112,39.139
2.043,0.00088,0.00569,0.00165,0.02730,-0.02621,0.96724,38.069,38.114,37.112,39.139
2.053,0.00066,0.00564,0.00138,0.02629,-0.02601,0.96498,38.069,38.114,37.112,39.139
2.063,0.00066,0.00551,0.00124,0.02882,-0.02792,0.96868,38.069,38.114,37.112,39.249
2.073,0.00066,0.00542,0.00120,0.02808,-0.02948,0.96599,38.069,38.114,37.112,39.028
2.083,0.00061,0.00524,0.00120,0.02987,-0.02660,0.96716,38.069,38.114,37.112,39.470
2.093,0.00057,0.00498,0.00115,0.02523,-0.02621,0.96841,38.069,38.114,37.112,39.470
2.103,0.00043,0.00489,0.00124,0.02356,-0.02465,0.96607,38.069,38.114,37.112,39.249
2.113,0.00017,0.00502,0.00147,0.02874,-0.02999,0.96895,38.069,38.114,37.112,39.249
2.123,0.00003,0.00533,0.00178,0.02445,-0.02956,0.96919,38.069,38.114,37.112,39.360
2.133,0.00012,0.00569,0.00209,0.02426,-0.02999,0.96673,38.068,38.114,37.112,39.360
2.143,0.00012,0.00591,0.00227,0.02476,-0.02434,0.96642,38.068,38.114,37.112,39.139
2.153,0.00003,0.00600,0.00236,0.02851,-0.03065,0.96997,38.068,38.114,37.112,39.249
2.163,-0.00010,0.00587,0.00241,0.03077,-0.02710,0.96580,38.068,38.114,37.112,39.139
2.173,-0.00019,0.00573,0.00232,0.02812,-0.02952,0.96630,38.068,38.114,37.112,39.028
2.183,-0.00010,0.00569,0.00205,0.02796,-0.02492,0.96966,38.068,38.114,37.122,39.360
2.193,-0.00010,0.00569,0.00178,0.02777,-0.02535,0.97149,38.068,38.114,37.122,39.249
2.203,-0.00001,0.00573,0.00160,0.02675,-0.02987,0.96759,38.068,38.114,37.122,39.360
2.213,0.00012,0.00582,0.00165,0.02621,-0.02609,0.97032,38.068,38.114,37.122,39.360
2.223,0.00026,0.00591,0.00160,0.02410,-0.02504,0.96673,38.068,38.114,37.122,39.249
2.233,0.00057,0.00574,0.00147,0.02605,-0.02796,0.96907,38.068,38.103,37.122,39.139
2.243,0.00084,0.00547,0.00138,0.02734,-0.02660,0.96704,38.068,38.103,37.122,39.139
2.253,0.00110,0.00520,0.00147,0.02847,-0.02835,0.96899,38.068,38.103,37.122,39.360
2.263,0.00101,0.00498,0.00156,0.02184,-0.02800,0.96771,38.068,38.103,37.122,39.249
2.273,0.00110,0.00493,0.00165,0.02644,-0.02839,0.96876,38.068,38.103,37.122,39.360
2.283,0.00115,0.00493,0.00182,0.02593,-0.02691,0.96720,38.068,38.103,37.122,39.360
2.293,0.00110,0.00511,0.00200,0.02703,-0.02800,0.96740,38.068,38.103,37.122,39.249
2.303,0.00093,0.00529,0.00209,0.02582,-0.02753,0.97141,38.068,38.103,37.122,39.139
2.313,0.00093,0.00547,0.00218,0.02710,-0.02613,0.96927,38.068,38.103,37.122,39.470
2.323,0.00075,0.00551,0.00214,0.02188,-0.02558,0.96833,38.068,38.103,37.122,39.470
2.333,0.00026,0.00556,0.00196,0.02995,-0.02168,0.97071,38.076,38.103,37.122,39.139
2.343,0.00012,0.00565,0.00160,0.02898,-0.02722,0.96704,38.076,38.103,37.122,39.139
2.353,0.00012,0.00569,0.00146,0.02644,-0.02410,0.97133,38.076,38.103,37.122,39.249
2.363,0.00012,0.00583,0.00151,0.02554,-0.02909,0.96775,38.076,38.103,37.122,39.360
2.373,0.00021,0.00596,0.00164,0.02473,-0.03093,0.96895,38.076,38.103,37.122,39.360
2.383,0.00039,0.00605,0.00173,0.03202,-0.02726,0.96892,38.076,38.103,37.134,39.249
2.393,0.00026,0.00618,0.00178,0.02898,-0.02601,0.96689,38.076,38.103,37.134,39.470
2.403,0.00030,0.00632,0.00182,0.02523,-0.02516,0.96845,38.076,38.103,37.134,39.249
2.413,0.00021,0.00649,0.00182,0.02882,-0.02469,0.96829,38.076,38.103,37.134,39.139
2.423,0.00030,0.00654,0.00191,0.02453,-0.02582,0.96716,38.076,38.103,37.134,39.360
2.433,0.00030,0.00644,0.00200,0.03214,-0.02863,0.96720,38.076,38.127,37.134,39.249
2.443,0.00013,0.00626,0.00204,0.02722,-0.02356,0.97075,38.076,38.127,37.134,39.139
2.453,0.00017,0.00631,0.00209,0.02707,-0.02278,0.96642,38.076,38.127,37.134,39.249
2.463,0.00030,0.00640,0.00213,0.02976,-0.02566,0.96548,38.076,38.127,37.134,39.360
2.473,0.00030,0.00653,0.00222,0.02262,-0.02434,0.96193,38.076,38.127,37.134,39.139
2.483,0.00044,0.00680,0.00222,0.02703,-0.02383,0.97063,38.076,38.127,37.134,39.360
2.493,0.00030,0.00711,0.00227,0.02437,-0.02387,0.96931,38.076,38.127,37.134,39.360
2.503,0.00035,0.00720,0.00231,0.03175,-0.02484,0.96919,38.076,38.127,37.134,39.360
2.513,0.00021,0.00689,0.00236,0.02344,-0.02781,0.96892,38.076,38.127,37.134,39.249
2.573,0.00066,0.00564,0.00205,0.02539,-0.02859,0.96646,38.071,38.127,37.134,39.360
2.583,0.00038,0.00546,0.00209,0.03268,-0.02375,0.97106,38.071,38.127,37.052,39.360
2.593,0.00029,0.00533,0.00205,0.02812,-0.02722,0.96607,38.071,38.127,37.052,39.139
2.603,0.00033,0.00519,0.00187,0.02691,-0.02457,0.96919,38.071,38.127,37.052,39.139
2.613,0.00007,0.00502,0.00173,0.02796,-0.03175,0.96903,38.071,38.127,37.052,39.470
2.623,-0.00011,0.00493,0.00160,0.02617,-0.02340,0.96498,38.071,38.127,37.052,39.249
2.633,-0.00011,0.00498,0.00151,0.02781,-0.02473,0.96712,38.071,38.097,37.052,39.139
2.643,-0.00007,0.00534,0.00142,0.03046,-0.02695,0.96825,38.071,38.097,37.052,39.470
2.653,-0.00025,0.00556,0.00147,0.02231,-0.02738,0.96681,38.071,38.097,37.052,39.360
2.663,-0.00020,0.00569,0.00169,0.02535,-0.02882,0.96658,38.071,38.097,37.052,39.249
2.673,-0.00020,0.00583,0.00191,0.02617,-0.02629,0.96794,38.071,38.097,37.052,39.139
2.683,0.00020,0.00578,0.00218,0.02913,-0.02831,0.96899,38.071,38.097,37.052,39.470
2.693,0.00047,0.00569,0.00227,0.02987,-0.02621,0.96884,38.071,38.097,37.052,39.360
2.703,0.00051,0.00565,0.00232,0.02383,-0.02925,0.96782,38.071,38.097,37.052,39.249
2.713,0.00051,0.00565,0.00236,0.03054,-0.02379,0.97040,38.071,38.097,37.052,39.249
2.723,0.00051,0.00547,0.00240,0.02863,-0.02570,0.96338,38.071,38.097,37.052,39.139
2.733,0.00020,0.00529,0.00245,0.02590,-0.02746,0.96884,38.071,38.097,37.052,39.249
2.743,0.00015,0.00529,0.00236,0.02894,-0.02558,0.96595,38.073,38.097,37.052,39.139
2.753,0.00029,0.00516,0.00222,0.03206,-0.02153,0.96899,38.073,38.097,37.052,39.360
2.763,0.00015,0.00512,0.00209,0.02574,-0.02391,0.96755,38.073,38.097,37.052,39.249
2.773,0.00024,0.00512,0.00209,0.03463,-0.02629,0.96966,38.073,38.097,37.052,39.360
2.783,0.00037,0.00516,0.00200,0.03241,-0.02609,0.96732,38.073,38.097,36.992,39.360
2.793,0.00045,0.00507,0.00200,0.02882,-0.02773,0.97055,38.073,38.097,36.992,39.360
2.803,0.00059,0.00494,0.00209,0.02699,-0.02695,0.97133,38.073,38.097,36.992,39.360
2.813,0.00050,0.00498,0.00218,0.02625,-0.03112,0.96985,38.073,38.097,36.992,39.360
2.823,0.00050,0.00503,0.00231,0.02765,-0.02734,0.96989,38.073,38.097,36.992,39.139
2.833,0.00045,0.00498,0.00240,0.02995,-0.02718,0.96478,38.073,38.097,36.992,39.139
2.843,0.00063,0.00518,0.00236,0.02648,-0.02590,0.96775,38.073,38.042,36.992,39.139
2.853,0.00077,0.00540,0.00222,0.02995,-0.02905,0.96591,38.073,38.042,36.992,39.139
2.863,0.00072,0.00545,0.00218,0.02664,-0.02590,0.96833,38.073,38.042,36.992,39.470
2.873,0.00077,0.00536,0.00218,0.02675,-0.02235,0.96993,38.073,38.042,36.992,39.360
2.883,0.00081,0.00540,0.00214,0.02668,-0.02285,0.96505,38.073,38.042,36.992,39.139
2.893,0.00077,0.00545,0.00196,0.02593,-0.02484,0.96985,38.073,38.042,36.992,39.360
2.903,0.00063,0.00545,0.00178,0.02859,-0.02551,0.96915,38.073,38.042,36.992,39.249
2.913,0.00086,0.00558,0.00151,0.02461,-0.02239,0.96915,38.073,38.042,36.992,39.360
2.923,0.00112,0.00572,0.00138,0.02375,-0.02839,0.96985,38.073,38.042,36.992,39.470
2.933,0.00121,0.00589,0.00142,0.03038,-0.02831,0.97215,38.073,38.042,36.992,39.249
2.943,0.00135,0.00580,0.00142,0.02574,-0.02937,0.96283,38.074,38.042,36.992,39.139
2.953,0.00126,0.00576,0.00146,0.03116,-0.02660,0.96552,38.074,38.042,36.992,39.249
2.963,0.00121,0.00576,0.00151,0.02516,-0.02898,0.96974,38.074,38.042,36.992,39.139
2.973,0.00126,0.00563,0.00155,0.02800,-0.02824,0.96295,38.074,38.042,36.992,39.470
2.983,0.00115,0.00563,0.00169,0.02656,-0.02773,0.96704,38.074,38.042,37.120,39.249
2.993,0.00115,0.00576,0.00178,0.03003,-0.02742,0.96993,38.074,38.042,37.120,39.139
3.003,0.00101,0.00576,0.00187,0.02586,-0.02488,0.96482,38.074,38.042,37.120,39.360
3.013,0.00097,0.00572,0.00191,0.02976,-0.02750,0.96408,38.074,38.042,37.120,39.470
3.023,0.00092,0.00572,0.00200,0.02827,-0.02516,0.96864,38.074,38.042,37.120,39.470
3.033,0.00097,0.00572,0.00200,0.02648,-0.02757,0.96993,38.074,38.042,37.120,39.249
3.043,0.00066,0.00563,0.00209,0.02781,-0.02859,0.96732,38.074,38.147,37.120,39.139
3.053,0.00012,0.00559,0.00196,0.02788,-0.02395,0.96650,38.074,38.147,37.120,39.249
3.063,0.00003,0.00532,0.00169,0.03101,-0.02937,0.96704,38.074,38.147,37.120,39.360
3.073,-0.00014,0.00501,0.00155,0.02874,-0.02952,0.96623,38.074,38.147,37.120,39.360
3.083,-0.00014,0.00470,0.00151,0.02937,-0.02913,0.96665,38.074,38.147,37.120,39.470
3.093,-0.00028,0.00461,0.00160,0.02336,-0.02898,0.96775,38.074,38.147,37.120,39.360
3.103,-0.00050,0.00456,0.00178,0.02687,-0.02785,0.96950,38.074,38.147,37.120,39.249
3.113,-0.00072,0.00456,0.00187,0.02933,-0.02870,0.96895,38.074,38.147,37.120,39.139
3.123,-0.00046,0.00461,0.00187,0.02703,-0.02656,0.96895,38.074,38.147,37.120,39.139
3.133,-0.00032,0.00456,0.00182,0.03085,-0.02699,0.96977,38.074,38.147,37.120,39.249
3.143,-0.00059,0.00438,0.00178,0.02905,-0.02492,0.96962,38.070,38.147,37.120,39.470
3.153,-0.00068,0.00421,0.00178,0.02835,-0.02660,0.96728,38.070,38.147,37.120,39.249
3.163,-0.00095,0.00412,0.00178,0.02781,-0.02656,0.96966,38.070,38.147,37.120,39.139
3.173,-0.00130,0.00412,0.00164,0.02395,-0.02512,0.97040,38.070,38.147,37.120,39.139
3.183,-0.00130,0.00434,0.00160,0.02730,-0.02379,0.96837,38.070,38.147,37.120,39.139
3.193,-0.00119,0.00470,0.00164,0.02406,-0.02902,0.96665,38.070,38.147,37.026,39.139
3.203,-0.00110,0.00505,0.00169,0.02878,-0.02465,0.96697,38.070,38.147,37.026,39.249
3.213,-0.00101,0.00528,0.00173,0.02730,-0.02535,0.96615,38.070,38.147,37.026,39.470
3.223,-0.00056,0.00523,0.00173,0.02851,-0.02738,0.96392,38.070,38.147,37.026,39.360
3.233,-0.00030,0.00528,0.00169,0.03011,-0.02839,0.97013,38.070,38.147,37.026,39.360
3.243,0.00037,0.00522,0.00178,0.03167,-0.02874,0.97063,38.070,38.178,37.026,39.139
3.253,0.00033,0.00513,0.00182,0.02738,-0.02578,0.96552,38.070,38.178,37.026,39.249
3.263,0.00037,0.00513,0.00182,0.02987,-0.03038,0.96817,38.070,38.178,37.026,39.360
3.273,0.00064,0.00517,0.00182,0.02757,-0.02633,0.97040,38.070,38.178,37.026,39.360
3.283,0.00073,0.00517,0.00173,0.02414,-0.02289,0.96673,38.070,38.178,37.026,39.360
3.293,0.00082,0.00513,0.00169,0.03011,-0.02149,0.96595,38.070,38.178,37.026,39.139
3.303,0.00113,0.00509,0.00173,0.02629,-0.02714,0.96802,38.070,38.178,37.026,39.360
3.313,0.00122,0.00495,0.00173,0.03159,-0.02282,0.97235,38.070,38.178,37.026,39.360
3.323,0.00091,0.00491,0.00173,0.02812,-0.02710,0.96895,38.070,38.178,37.026,39.249
3.333,0.00086,0.00504,0.00164,0.02671,-0.02785,0.96876,38.070,38.178,37.026,39.470
3.343,0.00086,0.00517,0.00164,0.02254,-0.02656,0.96708,38.075,38.178,37.026,39.139
3.353,0.00055,0.00526,0.00164,0.03198,-0.02718,0.97024,38.075,38.178,37.026,39.249
3.363,0.00051,0.00526,0.00169,0.02909,-0.02808,0.96747,38.075,38.178,37.026,39.249
3.373,0.00006,0.00535,0.00164,0.03069,-0.02644,0.96583,38.075,38.178,37.026,39.139
3.383,0.00019,0.00531,0.00169,0.03046,-0.02523,0.97020,38.075,38.178,37.026,39.139
3.393,0.00015,0.00535,0.00191,0.02859,-0.02500,0.96923,38.075,38.178,37.018,39.360
3.403,0.00010,0.00553,0.00200,0.02909,-0.02613,0.97048,38.075,38.178,37.018,39.360
3.413,0.00024,0.00566,0.00205,0.02633,-0.02570,0.96572,38.075,38.178,37.018,39.249
3.423,0.00019,0.00566,0.00196,0.02621,-0.02609,0.96572,38.075,38.178,37.018,39.360
3.433,0.00015,0.00553,0.00191,0.02769,-0.02894,0.96509,38.075,38.178,37.018,39.249
3.443,-0.00008,0.00559,0.00191,0.02929,-0.02675,0.96408,38.075,38.013,37.018,39.360
3.453,-0.00003,0.00559,0.00187,0.03038,-0.02496,0.96837,38.075,38.013,37.018,39.360
3.463,0.00001,0.00559,0.00182,0.02566,-0.02496,0.96474,38.075,38.013,37.018,39.249
3.473,0.00015,0.00564,0.00164,0.03011,-0.03065,0.97055,38.075,38.013,37.018,39.249
3.483,0.00024,0.00564,0.00160,0.03003,-0.02613,0.97028,38.075,38.013,37.018,39.139
3.493,0.00015,0.00550,0.00151,0.02648,-0.02750,0.96697,38.075,38.013,37.018,39.139
3.503,0.00055,0.00528,0.00151,0.02660,-0.02539,0.96701,38.075,38.013,37.018,39.470
3.513,0.00033,0.00532,0.00160,0.02648,-0.02944,0.97227,38.075,38.013,37.018,39.249
3.523,0.00042,0.00550,0.00164,0.02484,-0.02691,0.96482,38.075,38.013,37.018,39.360
3.533,0.00059,0.00564,0.00178,0.02773,-0.03065,0.96728,38.075,38.013,37.018,39.139
3.543,0.00059,0.00573,0.00200,0.02722,-0.02289,0.96888,38.069,38.013,37.018,39.470
3.553,0.00073,0.00586,0.00214,0.03202,-0.02629,0.96977,38.069,38.013,37.018,39.360
3.563,0.00064,0.00581,0.00223,0.02847,-0.02804,0.96564,38.069,38.013,37.018,39.139
3.573,0.00077,0.00555,0.00218,0.02430,-0.02363,0.96779,38.069,38.013,37.018,39.360
3.583,0.00095,0.00532,0.00205,0.02870,-0.02625,0.96884,38.069,38.013,37.018,39.249
3.593,0.00112,0.00501,0.00196,0.02476,-0.02633,0.96353,38.069,38.013,37.209,39.249
3.603,0.00090,0.00483,0.00196,0.02987,-0.02617,0.96623,38.069,38.013,37.209,39.249
3.613,0.00072,0.00488,0.00191,0.02695,-0.02734,0.96685,38.069,38.013,37.209,39.360
3.623,0.00063,0.00497,0.00191,0.02730,-0.02289,0.97013,38.069,38.013,37.209,39.139
3.633,0.00059,0.00501,0.00196,0.02925,-0.02321,0.96587,38.069,38.013,37.209,39.249
3.643,0.00072,0.00497,0.00196,0.02640,-0.02855,0.97075,38.069,37.877,37.209,39.139
3.653,0.00076,0.00493,0.00191,0.03108,-0.02484,0.96802,38.069,37.877,37.209,39.470
3.663,0.00085,0.00493,0.00178,0.02933,-0.02582,0.96755,38.069,37.877,37.209,39.139
3.673,0.00090,0.00488,0.00160,0.02613,-0.02867,0.96860,38.069,37.877,37.209,39.360
3.683,0.00067,0.00493,0.00165,0.02547,-0.02726,0.96892,38.069,37.877,37.209,39.139
3.693,0.00085,0.00511,0.00165,0.03124,-0.02999,0.96654,38.069,37.877,37.209,39.139
3.703,0.00090,0.00529,0.00173,0.03198,-0.02418,0.97215,38.069,37.877,37.209,39.249
3.713,0.00072,0.00542,0.00187,0.02379,-0.02726,0.96740,38.069,37.877,37.209,39.249
3.723,0.00054,0.00569,0.00196,0.02660,-0.02796,0.96704,38.069,37.877,37.209,39.360
3.733,0.00050,0.00600,0.00191,0.02839,-0.02597,0.96880,38.069,37.877,37.209,39.360
3.743,0.00076,0.00618,0.00191,0.02586,-0.02558,0.96630,38.073,37.877,37.209,39.470
3.753,0.00103,0.00631,0.00187,0.02909,-0.02937,0.96525,38.073,37.877,37.209,39.360
3.763,0.00090,0.00636,0.00178,0.02867,-0.02367,0.96876,38.073,37.877,37.209,39.360
3.773,0.00085,0.00636,0.00160,0.03491,-0.02609,0.96856,38.073,37.877,37.209,39.249
3.783,0.00094,0.00604,0.00142,0.02952,-0.02590,0.96977,38.073,37.877,37.209,39.139
3.793,0.00084,0.00578,0.00138,0.02457,-0.02987,0.96662,38.073,37.877,37.129,39.360
3.803,0.00066,0.00569,0.00138,0.02718,-0.02909,0.96689,38.073,37.877,37.129,39.360
3.813,0.00093,0.00555,0.00129,0.02999,-0.02484,0.96755,38.073,37.877,37.129,39.249
3.823,0.00084,0.00546,0.00124,0.02707,-0.02816,0.96662,38.073,37.877,37.129,39.360
3.833,0.00084,0.00551,0.00115,0.02593,-0.02679,0.96884,38.073,37.877,37.129,39.139
3.843,0.00070,0.00542,0.00115,0.02788,-0.03030,0.96665,38.073,37.992,37.129,39.360
3.853,0.00053,0.00524,0.00124,0.02722,-0.02363,0.97161,38.073,37.992,37.129,39.360
3.863,0.00048,0.00507,0.00133,0.02668,-0.02410,0.97087,38.073,37.992,37.129,39.470
3.873,0.00044,0.00493,0.00133,0.02929,-0.02679,0.96899,38.073,37.992,37.129,39.139
3.883,0.00026,0.00484,0.00142,0.02570,-0.02656,0.96759,38.073,37.992,37.129,39.360
3.893,0.00012,0.00502,0.00151,0.02890,-0.02827,0.96837,38.073,37.992,37.129,39.139
3.903,0.00012,0.00520,0.00169,0.02371,-0.02820,0.96763,38.073,37.992,37.129,39.139
3.913,0.00012,0.00538,0.00187,0.02851,-0.02831,0.97118,38.073,37.992,37.129,39.249
3.923,0.00008,0.00538,0.00205,0.02554,-0.02851,0.96755,38.073,37.992,37.129,39.139
3.933,0.00021,0.00533,0.00218,0.02909,-0.02734,0.96934,38.073,37.992,37.129,39.249
3.943,0.00021,0.00533,0.00222,0.02508,-0.02668,0.96634,38.078,37.992,37.129,39.139
3.953,0.00026,0.00538,0.00231,0.03030,-0.02746,0.96841,38.078,37.992,37.129,39.360
3.963,0.00030,0.00542,0.00236,0.02274,-0.03397,0.96747,38.078,37.992,37.129,39.139
3.973,0.00057,0.00547,0.00227,0.02859,-0.02469,0.96537,38.078,37.992,37.129,39.139
3.983,0.00061,0.00547,0.00209,0.02285,-0.02621,0.96509,38.078,37.992,37.129,39.470
3.993,0.00066,0.00533,0.00200,0.02976,-0.02855,0.96767,38.078,37.992,37.118,39.249
4.003,0.00057,0.00524,0.00182,0.02625,-0.02898,0.96712,38.078,37.992,37.118,39.360
4.013,0.00061,0.00529,0.00155,0.03108,-0.02344,0.96884,38.078,37.992,37.118,39.470
4.023,0.00061,0.00520,0.00137,0.02785,-0.02769,0.96825,38.078,37.992,37.118,39.249
4.033,0.00061,0.00520,0.00119,0.02617,-0.03077,0.96954,38.078,37.992,37.118,39.360
4.043,0.00030,0.00512,0.00106,0.02757,-0.02746,0.96849,38.078,38.084,37.118,39.360
4.053,0.00012,0.00499,0.00102,0.03307,-0.02566,0.97114,38.078,38.084,37.118,39.249
4.063,-0.00010,0.00485,0.00102,0.03377,-0.02894,0.96424,38.078,38.084,37.118,39.139
4.073,-0.00010,0.00490,0.00115,0.02761,-0.02882,0.96642,38.078,38.084,37.118,39.249
4.083,-0.00037,0.00503,0.00128,0.02582,-0.02609,0.96821,38.078,38.084,37.118,39.249
4.093,-0.00023,0.00508,0.00133,0.02824,-0.02921,0.96568,38.078,38.084,37.118,39.360
4.103,-0.00041,0.00508,0.00151,0.03124,-0.03097,0.96974,38.078,38.084,37.118,39.249
4.113,-0.00028,0.00508,0.00164,0.02937,-0.02894,0.97001,38.078,38.084,37.118,39.360
4.123,-0.00015,0.00508,0.00164,0.02699,-0.02894,0.97016,38.078,38.084,37.118,39.360
4.133,-0.00010,0.00508,0.00169,0.02640,-0.02348,0.96794,38.078,38.084,37.118,39.360
4.143,-0.00010,0.00508,0.00182,0.02535,-0.02601,0.96685,38.069,38.084,37.118,39.470
4.153,-0.00006,0.00512,0.00191,0.02734,-0.02492,0.96743,38.069,38.084,37.118,39.139
4.163,-0.00001,0.00512,0.00196,0.02847,-0.02644,0.97149,38.069,38.084,37.118,39.360
4.173,0.00012,0.00530,0.00187,0.02578,-0.02609,0.96654,38.069,38.084,37.118,39.360
4.183,0.00021,0.00557,0.00169,0.02543,-0.02383,0.96525,38.069,38.084,37.118,39.360
4.193,0.00039,0.00574,0.00165,0.02675,-0.02687,0.96997,38.069,38.084,37.118,39.360
4.203,0.00039,0.00570,0.00156,0.02246,-0.02710,0.97040,38.069,38.084,37.118,39.249
4.213,0.00075,0.00561,0.00142,0.02683,-0.02613,0.96868,38.069,38.084,37.118,39.360
4.223,0.00057,0.00557,0.00147,0.02652,-0.02652,0.96420,38.069,38.084,37.118,39.249
4.233,0.00070,0.00561,0.00151,0.02527,-0.02324,0.96513,38.069,38.084,37.118,39.249
4.243,0.00052,0.00580,0.00151,0.02605,-0.02613,0.97239,38.069,38.051,37.118,39.360
4.253,0.00030,0.00593,0.00151,0.02753,-0.02633,0.96892,38.069,38.051,37.118,39.360
4.263,0.00012,0.00589,0.00160,0.03260,-0.02492,0.96759,38.069,38.051,37.118,39.139
4.273,0.00003,0.00576,0.00160,0.02597,-0.02402,0.96919,38.069,38.051,37.118,39.360
4.283,-0.00006,0.00562,0.00160,0.02831,-0.02554,0.97059,38.069,38.051,37.118,39.470
4.293,-0.00010,0.00558,0.00160,0.02742,-0.02383,0.96568,38.069,38.051,37.118,39.360
4.303,-0.00028,0.00544,0.00169,0.02484,-0.02905,0.96591,38.069,38.051,37.118,39.470
4.313,-0.00019,0.00544,0.00173,0.03272,-0.03288,0.96946,38.069,38.051,37.118,39.249
4.323,-0.00015,0.00540,0.00160,0.03307,-0.02473,0.96821,38.069,38.051,37.118,39.249
4.333,-0.00006,0.00536,0.00151,0.02851,-0.02664,0.96583,38.069,38.051,37.118,39.139
4.343,-0.00028,0.00522,0.00137,0.03065,-0.02547,0.96470,38.079,38.051,37.118,39.249
4.353,-0.00046,0.00513,0.00128,0.03171,-0.02601,0.96728,38.079,38.051,37.118,39.139
4.363,-0.00037,0.00509,0.00106,0.02574,-0.02660,0.96892,38.079,38.051,37.118,39.360
4.373,-0.00015,0.00495,0.00102,0.02441,-0.02461,0.96915,38.079,38.051,37.118,39.360
4.383,-0.00006,0.00487,0.00115,0.02847,-0.02769,0.97075,38.079,38.051,37.118,39.360
4.393,0.00012,0.00491,0.00124,0.02991,-0.02948,0.96892,38.079,38.051,37.114,39.139
4.403,0.00021,0.00482,0.00137,0.03202,-0.02925,0.96954,38.079,38.051,37.114,39.139
4.413,0.00034,0.00473,0.00133,0.02562,-0.02820,0.96931,38.079,38.051,37.114,39.360
4.423,0.00043,0.00469,0.00137,0.03026,-0.02835,0.96350,38.079,38.051,37.114,39.249
4.433,0.00075,0.00482,0.00142,0.02699,-0.02597,0.96853,38.079,38.051,37.114,39.470
4.443,0.00052,0.00490,0.00146,0.02831,-0.02781,0.96677,38.079,38.077,37.114,39.249
4.453,0.00034,0.00508,0.00160,0.03315,-0.02753,0.96798,38.079,38.077,37.114,39.249
4.463,0.00008,0.00521,0.00178,0.02769,-0.02586,0.97013,38.079,38.077,37.114,39.249
4.473,0.00012,0.00530,0.00195,0.02839,-0.02804,0.96650,38.079,38.077,37.114,39.470
4.483,0.00048,0.00521,0.00204,0.02851,-0.02512,0.97028,38.079,38.077,37.114,39.360
4.493,0.00039,0.00512,0.00222,0.02430,-0.02808,0.97059,38.079,38.077,37.114,39.139
4.503,0.00034,0.00517,0.00236,0.02917,-0.02516,0.96424,38.079,38.077,37.114,39.360
4.513,0.00052,0.00526,0.00245,0.02800,-0.02644,0.96623,38.079,38.077,37.114,39.139
4.523,0.00043,0.00535,0.00245,0.02492,-0.02750,0.96942,38.079,38.077,37.114,39.360
4.533,0.00057,0.00548,0.00240,0.02980,-0.02956,0.96470,38.079,38.077,37.114,39.249
4.543,0.00057,0.00548,0.00236,0.02800,-0.02519,0.96654,38.074,38.077,37.114,39.360
4.553,0.00052,0.00535,0.00227,0.02757,-0.02746,0.96763,38.074,38.077,37.114,39.360
4.563,0.00017,0.00517,0.00222,0.02476,-0.02905,0.97040,38.074,38.077,37.114,39.360
4.573,0.00017,0.00503,0.00227,0.02613,-0.02437,0.96552,38.074,38.077,37.114,39.470
4.583,0.00021,0.00499,0.00227,0.02539,-0.02917,0.96732,38.074,38.077,37.114,39.249
4.593,0.00017,0.00503,0.00213,0.02652,-0.02519,0.96611,38.074,38.077,37.122,39.139
4.603,0.00026,0.00512,0.00196,0.02172,-0.02629,0.96771,38.074,38.077,37.122,39.249
4.613,-0.00006,0.00517,0.00196,0.02941,-0.02870,0.96927,38.074,38.077,37.122,39.249
4.623,-0.00006,0.00512,0.00200,0.02796,-0.02960,0.96888,38.074,38.077,37.122,39.470
4.633,0.00003,0.00508,0.00200,0.03085,-0.02929,0.96923,38.074,38.077,37.122,39.360
4.643,-0.00006,0.00510,0.00196,0.02344,-0.02593,0.96907,38.074,38.141,37.122,39.360
4.653,-0.00023,0.00523,0.00191,0.02547,-0.02792,0.97133,38.074,38.141,37.122,39.360
4.663,-0.00037,0.00550,0.00182,0.03377,-0.02976,0.96915,38.074,38.141,37.122,39.360
4.673,-0.00050,0.00568,0.00173,0.02761,-0.02972,0.96740,38.074,38.141,37.122,39.249
4.683,-0.00063,0.00572,0.00164,0.02960,-0.03046,0.96997,38.074,38.141,37.122,39.249
4.693,-0.00046,0.00568,0.00151,0.02418,-0.02656,0.96970,38.074,38.141,37.122,39.360
4.703,-0.00032,0.00563,0.00133,0.02894,-0.02687,0.96962,38.074,38.141,37.122,39.360
4.713,-0.00028,0.00563,0.00115,0.02410,-0.02422,0.96962,38.074,38.141,37.122,39.360
4.723,-0.00010,0.00568,0.00106,0.03085,-0.02921,0.96669,38.074,38.141,37.122,39.360
4.733,0.00003,0.00568,0.00102,0.03058,-0.03097,0.96837,38.074,38.141,37.122,39.470
4.743,0.00030,0.00581,0.00097,0.03159,-0.02410,0.96876,38.079,38.141,37.122,39.139
4.753,0.00035,0.00595,0.00093,0.02633,-0.02874,0.96595,38.079,38.141,37.122,39.360
4.763,0.00017,0.00586,0.00097,0.03089,-0.02695,0.96755,38.079,38.141,37.122,39.470
4.773,0.00030,0.00572,0.00110,0.02640,-0.02753,0.97024,38.079,38.141,37.122,39.249
4.783,0.00057,0.00559,0.00128,0.02894,-0.02710,0.97009,38.079,38.141,37.122,39.360
4.793,0.00053,0.00541,0.00151,0.02449,-0.02543,0.96872,38.079,38.141,37.132,39.139
4.803,0.00062,0.00532,0.00182,0.02586,-0.02718,0.96704,38.079,38.141,37.132,39.249
4.813,0.00057,0.00537,0.00200,0.02999,-0.02870,0.97258,38.079,38.141,37.132,39.360
4.823,0.00066,0.00550,0.00209,0.02761,-0.02726,0.97129,38.079,38.141,37.132,39.360
4.833,0.00075,0.00554,0.00218,0.03139,-0.02839,0.96845,38.079,38.141,37.132,39.360
4.843,0.00093,0.00557,0.00227,0.02816,-0.02722,0.96646,38.079,37.962,37.132,39.470
4.853,0.00079,0.00552,0.00231,0.03268,-0.03019,0.96751,38.079,37.962,37.132,39.360
4.863,0.00057,0.00561,0.00249,0.02847,-0.03206,0.96701,38.079,37.962,37.132,39.360
4.873,0.00035,0.00566,0.00254,0.03139,-0.02465,0.96662,38.079,37.962,37.132,39.249
4.883,0.00035,0.00574,0.00254,0.03097,-0.02933,0.97009,38.079,37.962,37.132,39.470
4.893,0.00070,0.00583,0.00249,0.02597,-0.02625,0.96704,38.079,37.962,37.132,39.360
4.903,0.00070,0.00566,0.00231,0.02395,-0.02601,0.97122,38.079,37.962,37.132,39.470
4.913,0.00057,0.00557,0.00222,0.02734,-0.02527,0.96814,38.079,37.962,37.132,39.249
4.923,0.00066,0.00561,0.00213,0.02800,-0.02726,0.96903,38.079,37.962,37.132,39.360
4.933,0.00053,0.00574,0.00204,0.02531,-0.02796,0.96880,38.079,37.962,37.132,39.249
4.943,0.00075,0.00583,0.00195,0.03015,-0.02769,0.96814,38.082,37.962,37.132,39.470
4.953,0.00062,0.00588,0.00200,0.02414,-0.02504,0.96463,38.082,37.962,37.132,39.360
4.963,0.00066,0.00597,0.00209,0.02687,-0.02605,0.96880,38.082,37.962,37.132,39.360
4.973,0.00062,0.00588,0.00213,0.02547,-0.02757,0.96798,38.082,37.962,37.132,39.139
4.983,0.00079,0.00579,0.00227,0.03007,-0.02847,0.96864,38.082,37.962,37.132,39.470
4.993,0.00084,0.00579,0.00236,0.02593,-0.02648,0.96447,38.082,37.962,37.121,39.360
5.003,0.00097,0.00579,0.00236,0.02761,-0.02504,0.97149,38.082,37.962,37.121,39.139
5.013,0.00106,0.00574,0.00236,0.02695,-0.02898,0.97126,38.082,37.962,37.121,39.360
5.023,0.00097,0.00579,0.00227,0.02734,-0.02804,0.96868,38.082,37.962,37.121,39.249
5.033,0.00097,0.00583,0.00222,0.02909,-0.02625,0.97036,38.082,37.962,37.121,39.139
5.043,0.00110,0.00557,0.00213,0.02469,-0.02703,0.96646,38.082,38.201,37.121,39.249
5.053,0.00106,0.00539,0.00213,0.02640,-0.03093,0.97114,38.082,38.201,37.121,39.360
5.063,0.00119,0.00530,0.00218,0.02266,-0.02691,0.96646,38.082,38.201,37.121,39.249
5.073,0.00101,0.00534,0.00231,0.02508,-0.02633,0.96782,38.082,38.201,37.121,39.249
5.133,0.00003,0.00494,0.00191,0.02847,-0.02363,0.96876,38.082,38.201,37.121,39.249
5.143,0.00003,0.00490,0.00195,0.02356,-0.02640,0.96892,38.081,38.201,37.121,39.249
5.153,-0.00010,0.00485,0.00200,0.02609,-0.02426,0.96650,38.081,38.201,37.121,39.360
5.163,-0.00037,0.00503,0.00209,0.02582,-0.02586,0.96619,38.081,38.201,37.121,39.360
5.173,-0.00032,0.00521,0.00213,0.02816,-0.02976,0.96642,38.081,38.201,37.121,39.139
5.183,-0.00037,0.00517,0.00218,0.02726,-0.02621,0.96720,38.081,38.201,37.121,39.360
5.193,-0.00024,0.00517,0.00204,0.02890,-0.02890,0.96942,38.081,38.201,37.105,39.360
5.203,-0.00010,0.00503,0.00195,0.02605,-0.02535,0.96685,38.081,38.201,37.105,39.249
5.213,-0.00001,0.00481,0.00195,0.02722,-0.02367,0.96662,38.081,38.201,37.105,39.360
5.223,0.00008,0.00459,0.00200,0.02414,-0.02679,0.96693,38.081,38.201,37.105,39.249
5.233,0.00021,0.00454,0.00209,0.02730,-0.02242,0.96771,38.081,38.201,37.105,39.360
5.243,0.00030,0.00480,0.00213,0.02851,-0.02492,0.96790,38.081,38.104,37.105,39.470
5.253,0.00025,0.00471,0.00209,0.03062,-0.02593,0.96779,38.081,38.104,37.105,39.139
5.263,0.00021,0.00458,0.00191,0.02344,-0.02703,0.96892,38.081,38.104,37.105,39.360
5.273,0.00021,0.00462,0.00182,0.02535,-0.02827,0.96650,38.081,38.104,37.105,39.249
5.283,0.00039,0.00471,0.00191,0.02578,-0.02617,0.97184,38.081,38.104,37.105,39.249
5.293,0.00048,0.00480,0.00186,0.02843,-0.02726,0.97024,38.081,38.104,37.105,39.360
5.303,0.00034,0.00480,0.00191,0.02519,-0.02418,0.96560,38.081,38.104,37.105,39.360
5.313,0.00039,0.00480,0.00191,0.02660,-0.02718,0.96720,38.081,38.104,37.105,39.249
5.323,0.00043,0.00471,0.00200,0.02508,-0.02738,0.96970,38.081,38.104,37.105,39.360
5.333,0.00048,0.00467,0.00200,0.02855,-0.02987,0.96662,38.081,38.104,37.105,39.249
5.343,0.00065,0.00471,0.00191,0.02944,-0.02644,0.96704,38.089,38.104,37.105,39.360
5.353,0.00070,0.00471,0.00182,0.02586,-0.02941,0.96533,38.089,38.104,37.105,39.249
5.363,0.00052,0.00480,0.00173,0.02629,-0.02597,0.96962,38.089,38.104,37.105,39.249
5.373,0.00065,0.00489,0.00177,0.02944,-0.02324,0.96490,38.089,38.104,37.105,39.249
5.383,0.00092,0.00498,0.00191,0.03210,-0.02863,0.96693,38.089,38.104,37.105,39.470
5.393,0.00089,0.00485,0.00204,0.02562,-0.02531,0.96701,38.089,38.104,36.932,39.360
5.403,0.00067,0.00471,0.00195,0.02863,-0.02710,0.96693,38.089,38.104,36.932,39.249
5.413,0.00049,0.00467,0.00173,0.02839,-0.02519,0.96470,38.089,38.104,36.932,39.360
5.423,0.00035,0.00462,0.00168,0.02453,-0.02913,0.96665,38.089,38.104,36.932,39.249
5.433,0.00040,0.00467,0.00159,0.03202,-0.02551,0.97009,38.089,38.104,36.932,39.360
5.443,0.00040,0.00471,0.00146,0.02324,-0.02644,0.96466,38.089,38.106,36.932,39.249
5.453,0.00022,0.00458,0.00146,0.02948,-0.02863,0.96950,38.089,38.106,36.932,39.360
5.463,0.00018,0.00453,0.00146,0.02827,-0.02785,0.96981,38.089,38.106,36.932,39.249
5.473,0.00009,0.00453,0.00150,0.03190,-0.02359,0.96623,38.089,38.106,36.932,39.360
5.483,0.00035,0.00462,0.00164,0.02827,-0.02262,0.96817,38.089,38.106,36.932,39.360
5.493,0.00075,0.00467,0.00173,0.02633,-0.02449,0.97044,38.089,38.106,36.932,39.470
5.503,0.00049,0.00476,0.00173,0.02644,-0.02687,0.96720,38.089,38.106,36.932,39.360
5.513,0.00031,0.00493,0.00155,0.02812,-0.02582,0.96236,38.089,38.106,36.932,39.360
5.523,0.00022,0.00507,0.00137,0.02765,-0.02987,0.96701,38.089,38.106,36.932,39.249
5.533,0.00018,0.00516,0.00128,0.02913,-0.02352,0.97001,38.089,38.106,36.932,39.470
5.543,-0.00005,0.00525,0.00137,0.02773,-0.02944,0.96712,38.084,38.106,36.932,39.360
5.553,0.00013,0.00529,0.00137,0.02769,-0.02235,0.97075,38.084,38.106,36.932,39.139
5.563,-0.00000,0.00538,0.00137,0.03038,-0.02523,0.96802,38.084,38.106,36.932,39.249
5.573,-0.00000,0.00556,0.00142,0.02792,-0.02317,0.96993,38.084,38.106,36.932,39.360
5.583,0.00013,0.00574,0.00142,0.02851,-0.02773,0.97063,38.084,38.106,36.932,39.470
5.593,0.00025,0.00565,0.00137,0.03007,-0.02465,0.96810,38.084,38.106,37.094,39.360
5.603,0.00039,0.00551,0.00133,0.02921,-0.02925,0.96790,38.084,38.106,37.094,39.360
5.613,0.00030,0.00542,0.00133,0.02582,-0.02710,0.96311,38.084,38.106,37.094,39.249
5.623,0.00034,0.00533,0.00142,0.03097,-0.02215,0.97005,38.084,38.106,37.094,39.139
5.633,0.00079,0.00533,0.00137,0.02827,-0.02788,0.96962,38.084,38.106,37.094,39.360
5.643,0.00088,0.00530,0.00142,0.02671,-0.02656,0.96934,38.084,38.067,37.094,39.139
5.653,0.00065,0.00530,0.00155,0.02523,-0.02609,0.96833,38.084,38.067,37.094,39.470
5.663,0.00083,0.00530,0.00173,0.03015,-0.02484,0.96677,38.084,38.067,37.094,39.470
5.673,0.00096,0.00526,0.00173,0.03019,-0.02582,0.96966,38.084,38.067,37.094,39.249
5.683,0.00114,0.00526,0.00168,0.03202,-0.02570,0.96962,38.084,38.067,37.094,39.360
5.693,0.00132,0.00526,0.00177,0.02870,-0.02913,0.96572,38.084,38.067,37.094,39.470
5.703,0.00114,0.00526,0.00186,0.02882,-0.02516,0.96338,38.084,38.067,37.094,39.470
5.713,0.00119,0.00539,0.00195,0.02547,-0.02820,0.96755,38.084,38.067,37.094,39.360
5.723,0.00096,0.00566,0.00218,0.02785,-0.02566,0.96927,38.084,38.067,37.094,39.360
5.733,0.00088,0.00584,0.00231,0.02289,-0.02562,0.97013,38.084,38.067,37.094,39.139
5.743,0.00079,0.00593,0.00236,0.03046,-0.02738,0.96853,38.078,38.067,37.094,39.470
5.753,0.00061,0.00602,0.00231,0.02831,-0.03190,0.96389,38.078,38.067,37.094,39.139
5.763,0.00052,0.00597,0.00227,0.03050,-0.03104,0.96981,38.078,38.067,37.094,39.249
5.773,0.00043,0.00597,0.00236,0.03007,-0.02843,0.97024,38.078,38.067,37.094,39.470
5.783,0.00065,0.00597,0.00245,0.02753,-0.02679,0.97184,38.078,38.067,37.094,39.249
5.793,0.00037,0.00588,0.00245,0.02952,-0.02718,0.96911,38.078,38.067,37.041,39.470
5.803,0.00037,0.00579,0.00240,0.02710,-0.02781,0.96373,38.078,38.067,37.041,39.360
5.813,0.00020,0.00575,0.00240,0.02726,-0.02504,0.96837,38.078,38.067,37.041,39.360
5.823,0.00006,0.00575,0.00236,0.02742,-0.02777,0.96701,38.078,38.067,37.041,39.360
5.833,0.00011,0.00588,0.00231,0.02375,-0.03042,0.96771,38.078,38.067,37.041,39.360
5.843,-0.00003,0.00600,0.00213,0.02742,-0.03186,0.97063,38.078,38.123,37.041,39.360
5.853,0.00020,0.00609,0.00191,0.02363,-0.02566,0.97141,38.078,38.123,37.041,39.249
5.863,0.00020,0.00609,0.00187,0.03093,-0.02710,0.96841,38.078,38.123,37.041,39.139
5.873,0.00020,0.00595,0.00187,0.03175,-0.02691,0.96895,38.078,38.123,37.041,39.470
5.883,0.00011,0.00573,0.00187,0.02656,-0.02792,0.96552,38.078,38.123,37.041,39.360
5.893,-0.00012,0.00564,0.00191,0.02804,-0.02952,0.96693,38.078,38.123,37.041,39.360
5.903,0.00002,0.00560,0.00187,0.02937,-0.02968,0.96630,38.078,38.123,37.041,39.139
5.913,0.00006,0.00564,0.00182,0.02921,-0.02800,0.96498,38.078,38.123,37.041,39.470
5.923,0.00024,0.00582,0.00173,0.02590,-0.02765,0.96814,38.078,38.123,37.041,39.360
5.933,0.00024,0.00595,0.00173,0.02738,-0.02886,0.96849,38.078,38.123,37.041,39.360
5.943,0.00037,0.00582,0.00173,0.02504,-0.02812,0.97184,38.084,38.123,37.041,39.360
5.953,0.00055,0.00560,0.00164,0.02890,-0.02605,0.96888,38.084,38.123,37.041,39.360
5.963,0.00060,0.00528,0.00159,0.03175,-0.02633,0.96689,38.084,38.123,37.041,39.470
5.973,0.00051,0.00506,0.00168,0.03104,-0.03124,0.96962,38.084,38.123,37.041,39.360
5.983,0.00029,0.00493,0.00186,0.02547,-0.02753,0.96548,38.084,38.123,37.041,39.470
5.993,-0.00000,0.00497,0.00191,0.02640,-0.02894,0.96872,38.084,38.123,37.165,39.360
6.003,-0.00040,0.00515,0.00186,0.02905,-0.02929,0.97200,38.084,38.123,37.165,39.249
6.013,-0.00031,0.00524,0.00191,0.02917,-0.02414,0.96860,38.084,38.123,37.165,39.470
6.023,-0.00014,0.00515,0.00204,0.02987,-0.02730,0.97122,38.084,38.123,37.165,39.139
6.033,-0.00000,0.00515,0.00213,0.03221,-0.02578,0.96841,38.084,38.123,37.165,39.249
6.043,0.00009,0.00513,0.00218,0.02633,-0.02937,0.96533,38.084,38.181,37.165,39.470
6.053,0.00022,0.00508,0.00226,0.03054,-0.02523,0.96966,38.084,38.181,37.165,39.139
6.063,0.00027,0.00508,0.00226,0.03058,-0.02504,0.96790,38.084,38.181,37.165,39.360
6.073,0.00009,0.00513,0.00226,0.02742,-0.02707,0.97114,38.084,38.181,37.165,39.470
6.083,-0.00000,0.00504,0.00226,0.02516,-0.02656,0.96923,38.084,38.181,37.165,39.360
6.093,0.00031,0.00486,0.00226,0.02792,-0.02317,0.96591,38.084,38.181,37.165,39.360
6.103,0.00040,0.00482,0.00222,0.02902,-0.03221,0.96716,38.084,38.181,37.165,39.360
6.113,0.00040,0.00477,0.00218,0.02590,-0.02937,0.96681,38.084,38.181,37.165,39.360
6.123,0.00067,0.00468,0.00209,0.02395,-0.02909,0.96720,38.084,38.181,37.165,39.249
6.133,0.00107,0.00464,0.00204,0.02874,-0.02878,0.96825,38.084,38.181,37.165,39.360
6.143,0.00098,0.00464,0.00200,0.02621,-0.02773,0.96755,38.080,38.181,37.165,39.360
6.153,0.00084,0.00464,0.00200,0.02804,-0.02804,0.96798,38.080,38.181,37.165,39.470
6.163,0.00071,0.00451,0.00191,0.02695,-0.02516,0.96856,38.080,38.181,37.165,39.360
6.173,0.00080,0.00451,0.00195,0.02909,-0.02422,0.96537,38.080,38.181,37.165,39.139
6.183,0.00067,0.00451,0.00195,0.02656,-0.02601,0.96997,38.080,38.181,37.165,39.470
6.193,0.00058,0.00442,0.00195,0.03151,-0.02839,0.96927,38.080,38.181,37.199,39.139
6.203,0.00045,0.00451,0.00200,0.02531,-0.02734,0.96615,38.080,38.181,37.199,39.139
6.213,0.00049,0.00464,0.00204,0.02609,-0.02239,0.96794,38.080,38.181,37.199,39.139
6.223,0.00027,0.00477,0.00204,0.02519,-0.02282,0.96779,38.080,38.181,37.199,39.360
6.233,0.00023,0.00468,0.00209,0.02492,-0.02710,0.97184,38.080,38.181,37.199,39.360
6.243,0.00041,0.00471,0.00204,0.02921,-0.02769,0.97325,38.080,37.980,37.199,39.470
6.253,0.00036,0.00476,0.00200,0.02757,-0.02785,0.96513,38.080,37.980,37.199,39.360
6.263,0.00014,0.00480,0.00195,0.02656,-0.02831,0.96892,38.080,37.980,37.199,39.470
6.273,0.00036,0.00489,0.00186,0.02995,-0.02781,0.96552,38.080,37.980,37.199,39.139
6.283,0.00072,0.00489,0.00177,0.02929,-0.02473,0.96993,38.080,37.980,37.199,39.360
6.293,0.00058,0.00476,0.00177,0.03054,-0.02617,0.96751,38.080,37.980,37.199,39.249
6.303,0.00054,0.00458,0.00164,0.02878,-0.02441,0.96611,38.080,37.980,37.199,39.470
6.313,0.00045,0.00453,0.00155,0.02453,-0.02492,0.96630,38.080,37.980,37.199,39.139
6.323,0.00036,0.00458,0.00160,0.02469,-0.02902,0.96895,38.080,37.980,37.199,39.470
6.333,0.00049,0.00462,0.00160,0.02769,-0.02344,0.97032,38.080,37.980,37.199,39.360
6.343,0.00058,0.00476,0.00164,0.02804,-0.02558,0.96841,38.083,37.980,37.199,39.360
6.353,0.00049,0.00485,0.00159,0.02543,-0.02504,0.97293,38.083,37.980,37.199,39.470
6.363,0.00067,0.00480,0.00151,0.02847,-0.02414,0.97020,38.083,37.980,37.199,39.360
6.373,0.00072,0.00485,0.00146,0.02668,-0.02867,0.96942,38.083,37.980,37.199,39.360
6.383,0.00081,0.00485,0.00151,0.02480,-0.03058,0.96591,38.083,37.980,37.199,39.249
6.393,0.00106,0.00480,0.00155,0.02512,-0.02730,0.96771,38.083,37.980,37.131,39.360
6.403,0.00119,0.00480,0.00159,0.02777,-0.02796,0.97293,38.083,37.980,37.131,39.360
6.413,0.00115,0.00494,0.00168,0.02500,-0.02434,0.96716,38.083,37.980,37.131,39.360
6.423,0.00137,0.00516,0.00173,0.02609,-0.02714,0.97172,38.083,37.980,37.131,39.249
6.433,0.00111,0.00520,0.00173,0.02508,-0.02738,0.96720,38.083,37.980,37.131,39.360
6.443,0.00124,0.00511,0.00168,0.02734,-0.02644,0.96880,38.083,37.980,37.131,39.249
6.453,0.00137,0.00502,0.00159,0.02718,-0.02215,0.96478,38.083,37.980,37.131,39.360
6.463,0.00128,0.00480,0.00159,0.02788,-0.02562,0.96708,38.083,37.980,37.131,39.360
6.473,0.00124,0.00471,0.00146,0.03019,-0.02839,0.96934,38.083,37.980,37.131,39.360
6.483,0.00146,0.00476,0.00151,0.02765,-0.02656,0.97087,38.083,37.980,37.131,39.470
6.493,0.00133,0.00480,0.00146,0.02445,-0.02613,0.96396,38.083,37.980,37.131,39.139
6.503,0.00115,0.00471,0.00133,0.02917,-0.02878,0.96950,38.083,37.980,37.131,39.360
6.513,0.00115,0.00462,0.00110,0.02824,-0.02488,0.96903,38.083,37.980,37.131,39.470
6.523,0.00115,0.00462,0.00097,0.02695,-0.02847,0.97036,38.083,37.980,37.131,39.470
6.533,0.00097,0.00467,0.00088,0.02991,-0.02488,0.96673,38.083,37.980,37.131,39.360
6.543,0.00057,0.00471,0.00083,0.02726,-0.02941,0.96529,38.083,37.980,37.131,39.360
6.553,0.00030,0.00476,0.00092,0.02430,-0.02984,0.97161,38.083,37.980,37.131,39.249
6.563,0.00044,0.00471,0.00106,0.03182,-0.02933,0.96568,38.083,37.980,37.131,39.360
6.573,0.00039,0.00445,0.00124,0.02683,-0.03054,0.96248,38.083,37.980,37.131,39.360
6.583,0.00039,0.00431,0.00146,0.02566,-0.02820,0.96681,38.083,37.980,37.131,39.360
6.593,0.00053,0.00440,0.00146,0.02406,-0.02921,0.96763,38.083,37.980,37.144,39.249
6.603,0.00071,0.00445,0.00142,0.02574,-0.02683,0.97161,38.083,37.980,37.144,39.360
6.613,0.00062,0.00449,0.00133,0.02570,-0.02636,0.96856,38.083,37.980,37.144,39.470
6.623,0.00066,0.00462,0.00137,0.02410,-0.03015,0.97126,38.083,37.980,37.144,39.360
6.633,0.00075,0.00462,0.00146,0.02812,-0.02633,0.96693,38.083,37.980,37.144,39.470
6.643,0.00057,0.00461,0.00164,0.02761,-0.02465,0.96767,38.083,37.900,37.144,39.360
6.653,0.00044,0.00456,0.00168,0.02504,-0.02601,0.96572,38.083,37.900,37.144,39.249
6.663,0.00039,0.00452,0.00173,0.02874,-0.02535,0.96658,38.083,37.900,37.144,39.360
6.673,0.00062,0.00452,0.00168,0.02539,-0.02516,0.97024,38.083,37.900,37.144,39.360
6.683,0.00066,0.00461,0.00155,0.02999,-0.02180,0.96665,38.083,37.900,37.144,39.360
6.693,0.00062,0.00470,0.00146,0.02406,-0.02999,0.96767,38.083,37.900,37.144,39.470
6.703,0.00062,0.00488,0.00142,0.02406,-0.02851,0.97036,38.083,37.900,37.144,39.360
6.713,0.00071,0.00497,0.00133,0.02812,-0.02687,0.96798,38.083,37.900,37.144,39.470
6.723,0.00048,0.00505,0.00133,0.02835,-0.02504,0.96806,38.083,37.900,37.144,39.249
6.733,0.00013,0.00523,0.00155,0.02461,-0.02944,0.96603,38.083,37.900,37.144,39.581
6.743,0.00004,0.00532,0.00164,0.02204,-0.02937,0.96689,38.082,37.900,37.144,39.249
6.753,-0.00014,0.00541,0.00164,0.02613,-0.02375,0.97001,38.082,37.900,37.144,39.360
6.763,-0.00032,0.00554,0.00173,0.02671,-0.02278,0.96704,38.082,37.900,37.144,39.360
6.773,-0.00036,0.00554,0.00182,0.02972,-0.02558,0.96786,38.082,37.900,37.144,39.249
6.783,-0.00050,0.00541,0.00195,0.02746,-0.02566,0.96763,38.082,37.900,37.144,39.470
6.793,-0.00067,0.00537,0.00200,0.02465,-0.02800,0.96880,38.082,37.900,37.157,39.470
6.803,-0.00081,0.00537,0.00204,0.02695,-0.02675,0.96919,38.082,37.900,37.157,39.249
6.813,-0.00081,0.00532,0.00213,0.02574,-0.02512,0.96572,38.082,37.900,37.157,39.360
6.823,-0.00058,0.00546,0.00222,0.02301,-0.02722,0.96895,38.082,37.900,37.157,39.249
6.833,-0.00049,0.00559,0.00236,0.02699,-0.02894,0.96782,38.082,37.900,37.157,39.249
6.843,-0.00058,0.00540,0.00253,0.02956,-0.02636,0.96888,38.082,38.169,37.157,39.360
6.853,-0.00058,0.00522,0.00267,0.02761,-0.02660,0.96665,38.082,38.169,37.157,39.360
6.863,-0.00072,0.00496,0.00267,0.02722,-0.02980,0.96459,38.082,38.169,37.157,39.470
6.873,-0.00081,0.00482,0.00271,0.03022,-0.02781,0.96615,38.082,38.169,37.157,39.360
6.883,-0.00107,0.00491,0.00271,0.02648,-0.01934,0.96981,38.082,38.169,37.157,39.360
6.893,-0.00112,0.00509,0.00267,0.03011,-0.02547,0.97032,38.082,38.169,37.157,39.360
6.903,-0.00098,0.00527,0.00262,0.02847,-0.02426,0.96494,38.082,38.169,37.157,39.470
6.913,-0.00076,0.00549,0.00258,0.02558,-0.02660,0.96946,38.082,38.169,37.157,39.360
6.923,-0.00067,0.00553,0.00249,0.03366,-0.02558,0.96786,38.082,38.169,37.157,39.470
6.933,-0.00076,0.00571,0.00227,0.02574,-0.03175,0.96946,38.082,38.169,37.157,39.360
6.943,-0.00067,0.00571,0.00199,0.02593,-0.03143,0.96595,38.089,38.169,37.157,39.360
6.953,-0.00067,0.00571,0.00182,0.02551,-0.02593,0.96630,38.089,38.169,37.157,39.360
6.963,-0.00067,0.00580,0.00159,0.02714,-0.02278,0.96568,38.089,38.169,37.157,39.470
6.973,-0.00058,0.00594,0.00146,0.02808,-0.02753,0.96521,38.089,38.169,37.157,39.470
6.983,-0.00036,0.00589,0.00150,0.02492,-0.02714,0.96876,38.089,38.169,37.157,39.360
6.993,0.00008,0.00576,0.00155,0.02430,-0.03342,0.96634,38.089,38.169,37.134,39.139
7.003,0.00030,0.00562,0.00159,0.02383,-0.02738,0.96798,38.089,38.169,37.134,39.470
7.013,0.00079,0.00540,0.00168,0.02703,-0.02597,0.96740,38.089,38.169,37.134,39.360
7.023,0.00075,0.00536,0.00168,0.02999,-0.02909,0.96771,38.089,38.169,37.134,39.470
7.033,0.00062,0.00549,0.00168,0.02703,-0.02371,0.96677,38.089,38.169,37.134,39.360
7.043,0.00048,0.00566,0.00164,0.02391,-0.02734,0.96716,38.089,38.073,37.134,39.360
7.053,0.00035,0.00566,0.00177,0.02894,-0.02956,0.96751,38.089,38.073,37.134,39.360
7.063,0.00035,0.00544,0.00195,0.02847,-0.02332,0.96864,38.089,38.073,37.134,39.249
7.073,0.00044,0.00548,0.00217,0.02671,-0.02660,0.96974,38.089,38.073,37.134,39.360
7.083,0.00044,0.00548,0.00235,0.02695,-0.02683,0.96810,38.089,38.073,37.134,39.139
7.093,0.00030,0.00553,0.00249,0.02523,-0.02960,0.96911,38.089,38.073,37.134,39.249
7.103,0.00044,0.00557,0.00244,0.02843,-0.02367,0.96782,38.089,38.073,37.134,39.360
7.113,0.00053,0.00575,0.00235,0.03050,-0.03299,0.96658,38.089,38.073,37.134,39.360
7.123,0.00030,0.00579,0.00231,0.02551,-0.03436,0.96860,38.089,38.073,37.134,39.470
7.133,0.00008,0.00561,0.00231,0.03058,-0.02944,0.97083,38.089,38.073,37.134,39.360
7.143,0.00017,0.00553,0.00240,0.02890,-0.02944,0.96759,38.084,38.073,37.134,39.249
7.153,0.00030,0.00530,0.00249,0.02652,-0.03132,0.96740,38.084,38.073,37.134,39.249
7.163,0.00044,0.00512,0.00244,0.02956,-0.02699,0.96736,38.084,38.073,37.134,39.360
7.173,0.00044,0.00490,0.00235,0.03030,-0.02944,0.96954,38.084,38.073,37.134,39.139
7.183,0.00048,0.00486,0.00209,0.02726,-0.02508,0.97243,38.084,38.073,37.134,39.581
7.193,0.00061,0.00472,0.00177,0.02648,-0.02644,0.96716,38.084,38.073,37.121,39.360
7.203,0.00057,0.00450,0.00150,0.02785,-0.02395,0.96708,38.084,38.073,37.121,39.360
7.213,0.00030,0.00432,0.00119,0.02710,-0.02422,0.96591,38.084,38.073,37.121,39.360
7.223,0.00035,0.00414,0.00106,0.02613,-0.02742,0.96931,38.084,38.073,37.121,39.249
7.233,0.00030,0.00414,0.00101,0.03241,-0.02636,0.96829,38.084,38.073,37.121,39.360
7.243,0.00026,0.00411,0.00097,0.02765,-0.02566,0.96880,38.084,38.055,37.121,39.470
7.253,0.00035,0.00415,0.00088,0.02937,-0.02835,0.96634,38.084,38.055,37.121,39.470
7.263,0.00039,0.00424,0.00079,0.03120,-0.02824,0.96876,38.084,38.055,37.121,39.360
7.273,0.00021,0.00424,0.00057,0.02976,-0.03003,0.97145,38.084,38.055,37.121,39.360
7.283,0.00035,0.00424,0.00043,0.03104,-0.02913,0.96669,38.084,38.055,37.121,39.360
7.293,0.00039,0.00420,0.00048,0.02753,-0.02578,0.96981,38.084,38.055,37.121,39.470
7.303,0.00043,0.00428,0.00057,0.02777,-0.02870,0.96708,38.084,38.055,37.121,39.470
7.313,0.00070,0.00437,0.00074,0.02699,-0.02691,0.97016,38.084,38.055,37.121,39.249
7.323,0.00070,0.00446,0.00110,0.02980,-0.02012,0.96880,38.084,38.055,37.121,39.249
7.333,0.00061,0.00442,0.00133,0.03050,-0.02671,0.96728,38.084,38.055,37.121,39.470
7.343,0.00057,0.00442,0.00150,0.02683,-0.02831,0.96650,38.094,38.055,37.121,39.139
7.353,0.00057,0.00446,0.00141,0.02792,-0.02582,0.96724,38.094,38.055,37.121,39.360
7.363,0.00043,0.00455,0.00128,0.03537,-0.02578,0.96856,38.094,38.055,37.121,39.139
7.373,0.00030,0.00464,0.00114,0.02679,-0.02902,0.96751,38.094,38.055,37.121,39.249
7.383,0.00008,0.00473,0.00110,0.02804,-0.02348,0.96759,38.094,38.055,37.121,39.139
7.393,0.00021,0.00477,0.00105,0.02925,-0.02816,0.96798,38.094,38.055,37.115,39.249
7.403,0.00026,0.00469,0.00123,0.03218,-0.02835,0.96837,38.094,38.055,37.115,39.470
7.413,0.00021,0.00460,0.00128,0.02956,-0.02473,0.96958,38.094,38.055,37.115,39.249
7.423,0.00030,0.00460,0.00132,0.03221,-0.02543,0.96814,38.094,38.055,37.115,39.470
7.433,0.00039,0.00451,0.00137,0.02730,-0.02941,0.96907,38.094,38.055,37.115,39.360
7.443,0.00026,0.00439,0.00146,0.03046,-0.02512,0.96716,38.094,38.128,37.115,39.360
7.453,-0.00001,0.00448,0.00141,0.02554,-0.02835,0.96677,38.094,38.128,37.115,39.360
7.463,-0.00001,0.00461,0.00141,0.03022,-0.02707,0.96568,38.094,38.128,37.115,39.360
7.473,0.00008,0.00457,0.00137,0.02905,-0.02730,0.96841,38.094,38.128,37.115,39.139
7.483,-0.00015,0.00452,0.00146,0.02664,-0.02566,0.96981,38.094,38.128,37.115,39.360
7.493,-0.00023,0.00439,0.00155,0.03311,-0.02820,0.96950,38.094,38.128,37.115,39.360
7.503,-0.00015,0.00430,0.00163,0.02722,-0.02484,0.96911,38.094,38.128,37.115,39.139
7.513,0.00012,0.00430,0.00159,0.02395,-0.02219,0.97153,38.094,38.128,37.115,39.360
7.523,0.00003,0.00435,0.00163,0.02562,-0.02508,0.96521,38.094,38.128,37.115,39.360
7.533,-0.00001,0.00444,0.00168,0.03210,-0.02800,0.96767,38.094,38.128,37.115,39.360
7.543,0.00008,0.00444,0.00186,0.02613,-0.03249,0.96950,38.091,38.128,37.115,39.360
7.553,-0.00023,0.00439,0.00195,0.02508,-0.02765,0.96915,38.091,38.128,37.115,39.249
7.563,-0.00028,0.00439,0.00199,0.02995,-0.02500,0.96701,38.091,38.128,37.115,39.360
7.573,-0.00019,0.00444,0.00195,0.02586,-0.02796,0.96716,38.091,38.128,37.115,39.249
7.583,-0.00001,0.00452,0.00190,0.02675,-0.02753,0.97161,38.091,38.128,37.115,39.360
7.593,-0.00001,0.00457,0.00190,0.02516,-0.02480,0.96537,38.091,38.128,37.138,39.470
7.603,-0.00001,0.00457,0.00186,0.02437,-0.02605,0.96669,38.091,38.128,37.138,39.360
7.613,0.00022,0.00448,0.00186,0.02465,-0.02531,0.96911,38.091,38.128,37.138,39.249
7.623,0.00017,0.00448,0.00186,0.02586,-0.02679,0.96802,38.091,38.128,37.138,39.360
7.633,0.00030,0.00461,0.00190,0.02445,-0.02714,0.97091,38.091,38.128,37.138,39.360
7.693,0.00088,0.00453,0.00204,0.02882,-0.02882,0.97200,38.091,38.123,37.138,39.470
7.703,0.00093,0.00444,0.00213,0.02851,-0.02859,0.96997,38.091,38.123,37.138,39.360
7.713,0.00084,0.00435,0.00226,0.02831,-0.02937,0.96513,38.091,38.123,37.138,39.249
7.723,0.00093,0.00430,0.00231,0.02344,-0.02944,0.96981,38.091,38.123,37.138,39.360
7.733,0.00093,0.00435,0.00235,0.02750,-0.02508,0.96771,38.091,38.123,37.138,39.470
7.743,0.00088,0.00444,0.00231,0.02574,-0.02527,0.96743,38.087,38.123,37.138,39.470
7.753,0.00088,0.00444,0.00226,0.03264,-0.02434,0.97270,38.087,38.123,37.138,39.360
7.763,0.00062,0.00444,0.00217,0.02391,-0.02640,0.96650,38.087,38.123,37.138,39.360
7.773,0.00044,0.00457,0.00204,0.02761,-0.02492,0.96888,38.087,38.123,37.138,39.470
7.783,0.00039,0.00466,0.00191,0.02929,-0.02516,0.96915,38.087,38.123,37.138,39.470
7.793,0.00018,0.00488,0.00182,0.02757,-0.03065,0.97048,38.087,38.123,37.212,39.360
7.803,0.00014,0.00519,0.00177,0.02757,-0.02558,0.96771,38.087,38.123,37.212,39.360
7.813,0.00010,0.00524,0.00159,0.02878,-0.02285,0.96794,38.087,38.123,37.212,39.470
7.823,0.00014,0.00515,0.00141,0.03081,-0.02625,0.96931,38.087,38.123,37.212,39.470
7.833,0.00014,0.00519,0.00137,0.02933,-0.02987,0.96895,38.087,38.123,37.212,39.249
7.843,0.00027,0.00522,0.00141,0.02999,-0.02847,0.96759,38.087,38.186,37.212,39.249
7.853,0.00027,0.00539,0.00146,0.02648,-0.02859,0.96572,38.087,38.186,37.212,39.360
7.863,0.00005,0.00557,0.00150,0.02551,-0.03268,0.96993,38.087,38.186,37.212,39.470
7.873,-0.00004,0.00544,0.00164,0.02757,-0.02418,0.96966,38.087,38.186,37.212,39.470
7.883,0.00014,0.00522,0.00168,0.02488,-0.02543,0.96658,38.087,38.186,37.212,39.360
7.893,0.00032,0.00499,0.00164,0.02453,-0.02835,0.96856,38.087,38.186,37.212,39.470
7.903,0.00045,0.00486,0.00164,0.02718,-0.02504,0.96892,38.087,38.186,37.212,39.360
7.913,0.00059,0.00482,0.00173,0.02492,-0.02999,0.96712,38.087,38.186,37.212,39.360
7.923,0.00059,0.00486,0.00191,0.03116,-0.02831,0.96872,38.087,38.186,37.212,39.360
7.933,0.00059,0.00477,0.00200,0.03179,-0.02297,0.96658,38.087,38.186,37.212,39.249
7.943,0.00068,0.00473,0.00208,0.02554,-0.02796,0.96529,38.094,38.186,37.212,39.360
7.953,0.00027,0.00468,0.00222,0.02324,-0.02496,0.96825,38.094,38.186,37.212,39.360
7.963,0.00010,0.00459,0.00226,0.02422,-0.02605,0.96919,38.094,38.186,37.212,39.249
7.973,0.00023,0.00455,0.00213,0.03097,-0.02796,0.96915,38.094,38.186,37.212,39.581
7.983,0.00023,0.00450,0.00199,0.02894,-0.02812,0.96767,38.094,38.186,37.212,39.581
7.993,0.00065,0.00446,0.00208,0.03097,-0.02648,0.96934,38.094,38.186,37.106,39.360
8.003,0.00092,0.00464,0.00208,0.02554,-0.02761,0.97235,38.094,38.186,37.106,39.360
8.013,0.00097,0.00464,0.00208,0.02516,-0.02734,0.96396,38.094,38.186,37.106,39.249
8.023,0.00092,0.00459,0.00208,0.02371,-0.03097,0.96689,38.094,38.186,37.106,39.470
8.033,0.00070,0.00459,0.00208,0.02722,-0.02730,0.97075,38.094,38.186,37.106,39.470
8.043,0.00057,0.00462,0.00208,0.02878,-0.02590,0.97036,38.094,37.978,37.106,39.360
8.053,0.00052,0.00458,0.00195,0.03284,-0.02461,0.97044,38.094,37.978,37.106,39.249
8.063,0.00048,0.00467,0.00177,0.02898,-0.02800,0.96662,38.094,37.978,37.106,39.470
8.073,0.00039,0.00480,0.00163,0.03202,-0.02699,0.96658,38.094,37.978,37.106,39.581
8.083,0.00061,0.00458,0.00163,0.02937,-0.02445,0.96318,38.094,37.978,37.106,39.470
8.093,0.00057,0.00449,0.00159,0.02633,-0.02586,0.96779,38.094,37.978,37.106,39.360
8.103,0.00039,0.00445,0.00163,0.03034,-0.02773,0.96193,38.094,37.978,37.106,39.360
8.113,0.00043,0.00445,0.00168,0.02640,-0.02870,0.97165,38.094,37.978,37.106,39.470
8.123,0.00025,0.00454,0.00159,0.03034,-0.02640,0.96864,38.094,37.978,37.106,39.360
8.133,0.00003,0.00462,0.00159,0.02406,-0.02539,0.96876,38.094,37.978,37.106,39.470
8.143,-0.00019,0.00476,0.00168,0.02769,-0.02664,0.96829,38.086,37.978,37.106,39.360
8.153,-0.00028,0.00467,0.00182,0.03003,-0.03182,0.96872,38.086,37.978,37.106,39.470
8.163,-0.00015,0.00454,0.00200,0.02734,-0.02570,0.96845,38.086,37.978,37.106,39.139
8.173,-0.00028,0.00445,0.00204,0.02449,-0.02590,0.96864,38.086,37.978,37.106,39.360
8.183,-0.00024,0.00440,0.00213,0.02855,-0.02683,0.96646,38.086,37.978,37.106,39.470
8.193,-0.00033,0.00431,0.00226,0.02496,-0.02437,0.96747,38.086,37.978,37.099,39.360
8.203,-0.00042,0.00431,0.00240,0.03245,-0.02562,0.97344,38.086,37.978,37.099,39.360
8.213,-0.00042,0.00462,0.00235,0.02894,-0.02781,0.96630,38.086,37.978,37.099,39.360
8.223,-0.00042,0.00454,0.00235,0.02691,-0.03132,0.96814,38.086,37.978,37.099,39.360
8.233,-0.00042,0.00445,0.00235,0.02972,-0.02590,0.96903,38.086,37.978,37.099,39.470
8.243,-0.00042,0.00436,0.00244,0.02539,-0.03046,0.96907,38.086,37.977,37.099,39.360
8.253,-0.00042,0.00422,0.00244,0.03073,-0.02757,0.97016,38.086,37.977,37.099,39.360
8.263,-0.00042,0.00418,0.00240,0.02539,-0.02605,0.96689,38.086,37.977,37.099,39.470
8.273,-0.00037,0.00431,0.00235,0.02894,-0.03046,0.96779,38.086,37.977,37.099,39.249
8.283,-0.00019,0.00431,0.00235,0.02878,-0.02570,0.97165,38.086,37.977,37.099,39.470
8.293,-0.00010,0.00418,0.00217,0.02785,-0.02707,0.96977,38.086,37.977,37.099,39.470
8.303,0.00007,0.00409,0.00213,0.02722,-0.02890,0.97091,38.086,37.977,37.099,39.470
8.313,0.00007,0.00405,0.00209,0.03058,-0.02660,0.96291,38.086,37.977,37.099,39.249
8.323,0.00021,0.00413,0.00209,0.02937,-0.02402,0.97102,38.086,37.977,37.099,39.470
8.333,0.00030,0.00427,0.00200,0.02917,-0.03030,0.97001,38.086,37.977,37.099,39.470
8.343,0.00043,0.00445,0.00191,0.02675,-0.02402,0.96751,38.087,37.977,37.099,39.470
8.353,0.00039,0.00467,0.00186,0.03104,-0.02531,0.96892,38.087,37.977,37.099,39.249
8.363,0.00048,0.00471,0.00177,0.02726,-0.02671,0.96782,38.087,37.977,37.099,39.249
8.373,0.00034,0.00476,0.00168,0.03034,-0.02547,0.96580,38.087,37.977,37.099,39.470
8.383,0.00030,0.00489,0.00168,0.02941,-0.03093,0.96747,38.087,37.977,37.099,39.249
8.393,0.00051,0.00494,0.00168,0.02792,-0.02648,0.96548,38.087,37.977,37.040,39.470
8.403,0.00042,0.00494,0.00168,0.03054,-0.03112,0.96724,38.087,37.977,37.040,39.470
8.413,0.00020,0.00512,0.00159,0.02395,-0.02519,0.96591,38.087,37.977,37.040,39.360
8.423,0.00015,0.00516,0.00155,0.02574,-0.02714,0.96673,38.087,37.977,37.040,39.470
8.433,0.00024,0.00507,0.00137,0.02593,-0.02765,0.97009,38.087,37.977,37.040,39.470
8.443,0.00011,0.00506,0.00115,0.02434,-0.02777,0.97137,38.087,37.994,37.040,39.249
8.453,0.00006,0.00506,0.00097,0.02905,-0.03065,0.96685,38.087,37.994,37.040,39.360
8.463,0.00006,0.00498,0.00092,0.02629,-0.02683,0.96880,38.087,37.994,37.040,39.360
8.473,-0.00012,0.00498,0.00097,0.02313,-0.02687,0.96759,38.087,37.994,37.040,39.360
8.483,-0.00003,0.00498,0.00106,0.03276,-0.02855,0.96459,38.087,37.994,37.040,39.470
8.493,-0.00007,0.00471,0.00119,0.03015,-0.02582,0.96630,38.087,37.994,37.040,39.360
8.503,0.00002,0.00444,0.00128,0.02535,-0.02554,0.96794,38.087,37.994,37.040,39.249
8.513,0.00011,0.00426,0.00124,0.02796,-0.02383,0.96970,38.087,37.994,37.040,39.360
8.523,-0.00007,0.00426,0.00119,0.02714,-0.02859,0.96740,38.087,37.994,37.040,39.470
8.533,0.00020,0.00435,0.00115,0.02430,-0.02383,0.96740,38.087,37.994,37.040,39.470
8.543,0.00029,0.00453,0.00114,0.02929,-0.03253,0.96872,38.092,37.994,37.040,39.470
8.553,0.00006,0.00466,0.00123,0.02722,-0.02742,0.96817,38.092,37.994,37.040,39.249
8.563,-0.00012,0.00480,0.00146,0.02469,-0.02551,0.97102,38.092,37.994,37.040,39.470
8.573,-0.00007,0.00475,0.00168,0.02508,-0.02668,0.97094,38.092,37.994,37.040,39.360
8.583,0.00011,0.00462,0.00177,0.02742,-0.03015,0.96860,38.092,37.994,37.040,39.691
8.593,0.00009,0.00453,0.00181,0.02703,-0.02675,0.96864,38.092,37.994,37.194,39.470
8.603,0.00005,0.00449,0.00186,0.02753,-0.02527,0.96856,38.092,37.994,37.194,39.360
8.613,-0.00004,0.00462,0.00181,0.02730,-0.02621,0.96860,38.092,37.994,37.194,39.470
8.623,0.00000,0.00480,0.00172,0.03171,-0.02473,0.96954,38.092,37.994,37.194,39.139
8.633,0.00014,0.00471,0.00164,0.02633,-0.02566,0.96630,38.092,37.994,37.194,39.360
8.643,0.00018,0.00453,0.00168,0.02827,-0.02508,0.97083,38.092,37.990,37.194,39.470
8.653,0.00040,0.00435,0.00164,0.02722,-0.02344,0.96701,38.092,37.990,37.194,39.360
8.663,0.00049,0.00426,0.00159,0.02586,-0.02788,0.96853,38.092,37.990,37.194,39.360
8.673,0.00049,0.00422,0.00150,0.02562,-0.02902,0.96564,38.092,37.990,37.194,39.470
8.683,0.00049,0.00435,0.00141,0.02710,-0.02582,0.96860,38.092,37.990,37.194,39.360
8.693,0.00058,0.00440,0.00128,0.02882,-0.02480,0.96829,38.092,37.990,37.194,39.470
8.703,0.00058,0.00426,0.00123,0.02714,-0.02543,0.96681,38.092,37.990,37.194,39.470
8.713,0.00040,0.00417,0.00123,0.03062,-0.02761,0.96474,38.092,37.990,37.194,39.360
8.723,0.00049,0.00417,0.00119,0.02605,-0.02605,0.97122,38.092,37.990,37.194,39.249
8.733,0.00072,0.00417,0.00119,0.03221,-0.02718,0.96872,38.092,37.990,37.194,39.360
8.743,0.00094,0.00417,0.00124,0.03159,-0.02671,0.96931,38.086,37.990,37.194,39.249
8.753,0.00107,0.00435,0.00133,0.02554,-0.02812,0.96919,38.086,37.990,37.194,39.360
8.763,0.00072,0.00458,0.00141,0.02188,-0.02956,0.96732,38.086,37.990,37.194,39.360
8.773,0.00076,0.00471,0.00141,0.02157,-0.02519,0.96311,38.086,37.990,37.194,39.470
8.783,0.00067,0.00475,0.00155,0.02870,-0.02859,0.96564,38.086,37.990,37.194,39.139
8.793,0.00044,0.00471,0.00164,0.02633,-0.02933,0.96849,38.086,37.990,37.152,39.360
8.803,0.00057,0.00458,0.00177,0.02527,-0.02831,0.96591,38.086,37.990,37.152,39.470
8.813,0.00084,0.00440,0.00191,0.03124,-0.02371,0.96435,38.086,37.990,37.152,39.470
8.823,0.00057,0.00422,0.00204,0.02882,-0.02223,0.97028,38.086,37.990,37.152,39.360
8.833,0.00057,0.00435,0.00204,0.03085,-0.03229,0.96974,38.086,37.990,37.152,39.249
8.843,0.00040,0.00450,0.00200,0.02804,-0.02640,0.96993,38.086,37.826,37.152,39.470
8.853,0.00031,0.00455,0.00195,0.02500,-0.03120,0.96650,38.086,37.826,37.152,39.470
8.863,0.00017,0.00455,0.00177,0.03026,-0.02804,0.96623,38.086,37.826,37.152,39.249
8.873,0.00031,0.00450,0.00159,0.02675,-0.02547,0.97176,38.086,37.826,37.152,39.470
8.883,0.00022,0.00446,0.00146,0.02597,-0.02586,0.97188,38.086,37.826,37.152,39.470
8.893,0.00040,0.00441,0.00137,0.02633,-0.03026,0.97126,38.086,37.826,37.152,39.249
8.903,0.00022,0.00415,0.00146,0.02816,-0.02660,0.96416,38.086,37.826,37.152,39.360
8.913,0.00008,0.00397,0.00155,0.02882,-0.02391,0.96892,38.086,37.826,37.152,39.470
8.923,-0.00005,0.00397,0.00168,0.02519,-0.02738,0.96802,38.086,37.826,37.152,39.470
8.933,-0.00005,0.00406,0.00168,0.02633,-0.02753,0.96486,38.086,37.826,37.152,39.470
8.943,0.00008,0.00428,0.00155,0.02835,-0.02543,0.96701,38.094,37.826,37.152,39.470
8.953,0.00026,0.00459,0.00150,0.02921,-0.02562,0.96806,38.094,37.826,37.152,39.139
8.963,0.00022,0.00468,0.00155,0.03147,-0.03011,0.96560,38.094,37.826,37.152,39.360
8.973,0.00049,0.00473,0.00163,0.02956,-0.02765,0.96946,38.094,37.826,37.152,39.470
8.983,0.00062,0.00473,0.00181,0.02968,-0.02453,0.96771,38.094,37.826,37.152,39.139
8.993,0.00061,0.00477,0.00204,0.02590,-0.02995,0.96759,38.094,37.826,37.121,39.581
9.003,0.00039,0.00486,0.00213,0.02422,-0.02890,0.97165,38.094,37.826,37.121,39.249
9.013,0.00039,0.00504,0.00213,0.02211,-0.02488,0.96607,38.094,37.826,37.121,39.470
9.023,0.00030,0.00530,0.00208,0.02800,-0.02586,0.96701,38.094,37.826,37.121,39.360
9.033,0.00043,0.00566,0.00195,0.03334,-0.03233,0.96977,38.094,37.826,37.121,39.139
9.043,0.00048,0.00572,0.00181,0.02578,-0.02890,0.97009,38.094,37.900,37.121,39.470
9.053,0.00052,0.00554,0.00172,0.02773,-0.02870,0.96966,38.094,37.900,37.121,39.360
9.063,0.00043,0.00541,0.00177,0.03011,-0.02691,0.96720,38.094,37.900,37.121,39.470
9.073,0.00017,0.00532,0.00190,0.02753,-0.02668,0.96833,38.094,37.900,37.121,39.360
9.083,0.00017,0.00528,0.00195,0.02543,-0.02968,0.97176,38.094,37.900,37.121,39.360
9.093,0.00021,0.00537,0.00199,0.02352,-0.02750,0.96373,38.094,37.900,37.121,39.360
9.103,0.00021,0.00532,0.00195,0.02558,-0.02695,0.96970,38.094,37.900,37.121,39.470
9.113,0.00026,0.00505,0.00172,0.02383,-0.02270,0.96587,38.094,37.900,37.121,39.470
9.123,0.00052,0.00474,0.00155,0.02980,-0.02558,0.96677,38.094,37.900,37.121,39.139
9.133,0.00043,0.00456,0.00141,0.02531,-0.02387,0.96981,38.094,37.900,37.121,39.470
9.143,0.00043,0.00439,0.00137,0.02652,-0.02543,0.96907,38.087,37.900,37.121,39.470
9.153,0.00066,0.00430,0.00137,0.02886,-0.02590,0.96923,38.087,37.900,37.121,39.470
9.163,0.00061,0.00430,0.00141,0.02788,-0.02254,0.96888,38.087,37.900,37.121,39.470
9.173,0.00070,0.00421,0.00141,0.02777,-0.02937,0.96950,38.087,37.900,37.121,39.470
9.183,0.00079,0.00412,0.00141,0.02601,-0.02153,0.96884,38.087,37.900,37.121,39.360
9.193,0.00079,0.00416,0.00132,0.02878,-0.02683,0.96872,38.087,37.900,37.124,39.470
9.203,0.00079,0.00425,0.00124,0.02937,-0.02831,0.96817,38.087,37.900,37.124,39.470
9.213,0.00070,0.00434,0.00124,0.03139,-0.02597,0.96681,38.087,37.900,37.124,39.470
9.223,0.00070,0.00439,0.00128,0.02430,-0.02601,0.96486,38.087,37.900,37.124,39.360
9.233,0.00057,0.00448,0.00146,0.02722,-0.02773,0.96938,38.087,37.900,37.124,39.360
9.243,0.00052,0.00451,0.00177,0.03034,-0.03112,0.97289,38.087,37.931,37.124,39.249
9.253,0.00003,0.00451,0.00191,0.02305,-0.02508,0.96931,38.087,37.931,37.124,39.470
9.263,-0.00005,0.00451,0.00208,0.02960,-0.02726,0.96899,38.087,37.931,37.124,39.470
9.273,-0.00019,0.00455,0.00208,0.02746,-0.02933,0.96533,38.087,37.931,37.124,39.360
9.283,-0.00037,0.00451,0.00204,0.02445,-0.02824,0.96966,38.087,37.931,37.124,39.470
9.293,-0.00019,0.00455,0.00195,0.02796,-0.02282,0.96872,38.087,37.931,37.124,39.470
9.303,-0.00019,0.00464,0.00186,0.03253,-0.02601,0.96938,38.087,37.931,37.124,39.360
9.313,0.00003,0.00460,0.00182,0.02633,-0.02593,0.97059,38.087,37.931,37.124,39.360
9.323,-0.00005,0.00437,0.00191,0.03214,-0.02636,0.97087,38.087,37.931,37.124,39.360
9.333,-0.00019,0.00420,0.00195,0.02582,-0.02746,0.97036,38.087,37.931,37.124,39.470
9.343,-0.00001,0.00402,0.00199,0.02640,-0.02714,0.96716,38.095,37.931,37.124,39.470
9.353,-0.00005,0.00393,0.00190,0.02547,-0.02796,0.96817,38.095,37.931,37.124,39.470
9.363,-0.00005,0.00393,0.00172,0.02804,-0.02746,0.96759,38.095,37.931,37.124,39.360
9.373,-0.00023,0.00406,0.00154,0.03089,-0.02379,0.96630,38.095,37.931,37.124,39.139
9.383,0.00003,0.00397,0.00154,0.02484,-0.02878,0.97044,38.095,37.931,37.124,39.360
9.393,0.00012,0.00388,0.00146,0.02461,-0.02886,0.96751,38.095,37.931,37.128,39.470
9.403,0.00021,0.00388,0.00154,0.02457,-0.02753,0.96654,38.095,37.931,37.128,39.360
9.413,0.00017,0.00397,0.00163,0.02609,-0.02636,0.96981,38.095,37.931,37.128,39.360
9.423,-0.00023,0.00406,0.00172,0.02683,-0.02703,0.96400,38.095,37.931,37.128,39.360
9.433,-0.00054,0.00433,0.00181,0.02636,-0.02652,0.96911,38.095,37.931,37.128,39.470
9.443,-0.00081,0.00451,0.00172,0.02223,-0.02449,0.97122,38.095,38.060,37.128,39.360
9.453,-0.00081,0.00451,0.00168,0.02679,-0.02562,0.96864,38.095,38.060,37.128,39.360
9.463,-0.00063,0.00446,0.00168,0.03077,-0.02570,0.96895,38.095,38.060,37.128,39.470
9.473,-0.00081,0.00446,0.00168,0.02691,-0.02671,0.96810,38.095,38.060,37.128,39.581
9.483,-0.00041,0.00437,0.00181,0.02878,-0.02469,0.96782,38.095,38.060,37.128,39.249
9.493,-0.00041,0.00428,0.00195,0.03065,-0.02430,0.96802,38.095,38.060,37.128,39.470
9.503,-0.00005,0.00419,0.00208,0.02570,-0.02917,0.96814,38.095,38.060,37.128,39.470
9.513,-0.00005,0.00415,0.00213,0.03015,-0.02839,0.96931,38.095,38.060,37.128,39.360
9.523,0.00008,0.00415,0.00217,0.02305,-0.02835,0.96782,38.095,38.060,37.128,39.249
9.533,0.00030,0.00410,0.00213,0.02831,-0.02551,0.96895,38.095,38.060,37.128,39.470
9.543,0.00048,0.00402,0.00217,0.02699,-0.02371,0.96829,38.095,38.060,37.128,39.470
9.553,0.00061,0.00397,0.00226,0.02816,-0.02574,0.97020,38.095,38.060,37.128,39.470
9.563,0.00075,0.00393,0.00230,0.02512,-0.02734,0.96338,38.095,38.060,37.128,39.360
9.573,0.00061,0.00393,0.00239,0.02418,-0.02531,0.96841,38.095,38.060,37.128,39.470
9.583,0.00053,0.00388,0.00235,0.02219,-0.02944,0.97106,38.095,38.060,37.128,39.470
9.593,0.00057,0.00384,0.00226,0.02469,-0.02410,0.96779,38.095,38.060,37.141,39.360
9.603,0.00071,0.00388,0.00213,0.02683,-0.02426,0.96478,38.095,38.060,37.141,39.470
9.613,0.00053,0.00406,0.00190,0.02999,-0.02820,0.96533,38.095,38.060,37.141,39.360
9.623,0.00075,0.00424,0.00172,0.02800,-0.03065,0.96981,38.095,38.060,37.141,39.470
9.633,0.00048,0.00433,0.00163,0.02593,-0.02769,0.96946,38.095,38.060,37.141,39.360
9.643,0.00048,0.00438,0.00159,0.03182,-0.02441,0.97200,38.095,38.040,37.141,39.470
9.653,0.00039,0.00433,0.00154,0.02960,-0.02535,0.96724,38.095,38.040,37.141,39.470
9.663,0.00013,0.00420,0.00159,0.03050,-0.02496,0.96899,38.095,38.040,37.141,39.470
9.673,-0.00001,0.00411,0.00154,0.02995,-0.02812,0.96880,38.095,38.040,37.141,39.470
9.683,-0.00001,0.00393,0.00141,0.02317,-0.02855,0.97001,38.095,38.040,37.141,39.360
9.693,0.00013,0.00380,0.00123,0.02687,-0.02629,0.97013,38.095,38.040,37.141,39.470
9.703,0.00044,0.00384,0.00114,0.03494,-0.02664,0.96942,38.095,38.040,37.141,39.470
9.713,0.00062,0.00402,0.00105,0.02734,-0.02937,0.96872,38.095,38.040,37.141,39.470
9.723,0.00062,0.00402,0.00105,0.02781,-0.03019,0.96708,38.095,38.040,37.141,39.470
9.733,0.00044,0.00407,0.00110,0.02917,-0.02153,0.96845,38.095,38.040,37.141,39.470
9.743,0.00039,0.00402,0.00128,0.03026,-0.02796,0.96693,38.092,38.040,37.141,39.139
9.753,0.00039,0.00398,0.00132,0.03202,-0.02824,0.96931,38.092,38.040,37.141,39.360
9.763,0.00053,0.00407,0.00132,0.02769,-0.02909,0.96654,38.092,38.040,37.141,39.470
9.773,0.00071,0.00438,0.00128,0.02788,-0.02379,0.96825,38.092,38.040,37.141,39.470
9.783,0.00088,0.00460,0.00132,0.03038,-0.02516,0.96899,38.092,38.040,37.141,39.249
9.793,0.00088,0.00465,0.00137,0.02925,-0.02231,0.96892,38.092,38.040,37.131,39.470
9.803,0.00088,0.00469,0.00146,0.02375,-0.02750,0.96962,38.092,38.040,37.131,39.581
9.813,0.00111,0.00478,0.00150,0.03097,-0.02816,0.97001,38.092,38.040,37.131,39.249
9.823,0.00115,0.00482,0.00164,0.02948,-0.03136,0.96763,38.092,38.040,37.131,39.360
9.833,0.00111,0.00496,0.00181,0.02750,-0.02788,0.96720,38.092,38.040,37.131,39.581
9.843,0.00115,0.00500,0.00204,0.02687,-0.02781,0.96759,38.092,38.041,37.131,39.360
9.853,0.00124,0.00496,0.00208,0.02699,-0.02874,0.96895,38.092,38.041,37.131,39.470
9.863,0.00146,0.00469,0.00195,0.02445,-0.02461,0.96884,38.092,38.041,37.131,39.360
9.873,0.00142,0.00451,0.00172,0.02683,-0.02738,0.97044,38.092,38.041,37.131,39.360
9.883,0.00142,0.00442,0.00168,0.02757,-0.02558,0.96946,38.092,38.041,37.131,39.360
9.893,0.00137,0.00442,0.00168,0.02734,-0.02488,0.96876,38.092,38.041,37.131,39.360
9.903,0.00128,0.00447,0.00181,0.02640,-0.02941,0.96794,38.092,38.041,37.131,39.470
9.913,0.00115,0.00438,0.00186,0.03062,-0.02437,0.96701,38.092,38.041,37.131,39.360
9.923,0.00128,0.00411,0.00195,0.02886,-0.02473,0.96408,38.092,38.041,37.131,39.249
9.933,0.00137,0.00389,0.00199,0.02687,-0.02835,0.96872,38.092,38.041,37.131,39.360
9.943,0.00115,0.00375,0.00208,0.02699,-0.02406,0.96658,38.101,38.041,37.131,39.360
9.953,0.00115,0.00380,0.00208,0.02941,-0.02309,0.96934,38.101,38.041,37.131,39.470
9.963,0.00106,0.00375,0.00190,0.02812,-0.02570,0.96763,38.101,38.041,37.131,39.360
9.973,0.00102,0.00384,0.00172,0.02313,-0.02710,0.96825,38.101,38.041,37.131,39.360
9.983,0.00079,0.00407,0.00163,0.02761,-0.02699,0.96919,38.101,38.041,37.131,39.470
9.993,0.00070,0.00429,0.00168,0.02777,-0.02406,0.96892,38.101,38.041,37.135,39.470
10.003,0.00066,0.00447,0.00172,0.02621,-0.02905,0.97317,38.101,38.041,37.135,39.360
10.013,0.00044,0.00447,0.00172,0.02788,-0.02917,0.97133,38.101,38.041,37.135,39.470
10.023,0.00039,0.00442,0.00159,0.02496,-0.02457,0.96673,38.101,38.041,37.135,39.581
10.033,0.00030,0.00433,0.00150,0.02699,-0.02375,0.96747,38.101,38.041,37.135,39.470
10.043,0.00039,0.00435,0.00154,0.02827,-0.02816,0.96708,38.101,38.118,37.135,39.360
10.053,0.00057,0.00448,0.00141,0.02640,-0.02788,0.97067,38.101,38.118,37.135,39.360
10.063,0.00048,0.00453,0.00123,0.02808,-0.02781,0.97028,38.101,38.118,37.135,39.139
10.073,0.00048,0.00466,0.00114,0.02636,-0.02847,0.96884,38.101,38.118,37.135,39.470
10.083,0.00030,0.00471,0.00114,0.02504,-0.02792,0.96911,38.101,38.118,37.135,39.470
10.093,0.00035,0.00475,0.00114,0.02726,-0.02496,0.96907,38.101,38.118,37.135,39.139
10.103,0.00039,0.00488,0.00118,0.02625,-0.02839,0.97399,38.101,38.118,37.135,39.470
10.113,0.00030,0.00480,0.00132,0.02051,-0.02941,0.96993,38.101,38.118,37.135,39.470
10.123,0.00026,0.00453,0.00136,0.02609,-0.02788,0.96853,38.101,38.118,37.135,39.470
10.133,0.00017,0.00431,0.00150,0.02356,-0.02905,0.96693,38.101,38.118,37.135,39.360
10.143,0.00013,0.00426,0.00163,0.02652,-0.02539,0.96954,38.101,38.118,37.135,39.470
10.153,0.00021,0.00422,0.00177,0.02902,-0.03003,0.96767,38.101,38.118,37.135,39.249
10.163,0.00021,0.00422,0.00181,0.03085,-0.02590,0.96728,38.101,38.118,37.135,39.360
10.173,0.00021,0.00426,0.00181,0.02664,-0.02406,0.96755,38.101,38.118,37.135,39.360
10.183,0.00004,0.00453,0.00194,0.02406,-0.02625,0.96743,38.101,38.118,37.135,39.470
10.193,0.00013,0.00466,0.00199,0.02430,-0.02882,0.96864,38.101,38.118,37.164,39.470
10.253,0.00080,0.00461,0.00172,0.02980,-0.02707,0.96498,38.101,38.136,37.164,39.470
10.263,0.00080,0.00457,0.00159,0.02824,-0.03268,0.97118,38.101,38.136,37.164,39.139
10.273,0.00093,0.00452,0.00141,0.02461,-0.02582,0.96888,38.101,38.136,37.164,39.360
10.283,0.00093,0.00461,0.00132,0.02909,-0.03124,0.96853,38.101,38.136,37.164,39.581
10.293,0.00120,0.00466,0.00127,0.03019,-0.02664,0.96642,38.101,38.136,37.164,39.360
10.303,0.00120,0.00470,0.00132,0.02800,-0.03089,0.96782,38.101,38.136,37.164,39.470
10.313,0.00129,0.00474,0.00118,0.03015,-0.02788,0.96712,38.101,38.136,37.164,39.470
10.323,0.00102,0.00483,0.00118,0.02781,-0.02714,0.97083,38.101,38.136,37.164,39.470
10.333,0.00102,0.00474,0.00110,0.02605,-0.02781,0.96728,38.101,38.136,37.164,39.249
10.343,0.00093,0.00466,0.00110,0.02964,-0.02808,0.96505,38.099,38.136,37.164,39.470
10.353,0.00053,0.00466,0.00127,0.03354,-0.02847,0.96806,38.099,38.136,37.164,39.470
10.363,0.00031,0.00470,0.00136,0.02332,-0.02531,0.96907,38.099,38.136,37.164,39.470
10.373,0.00026,0.00470,0.00150,0.03089,-0.02668,0.96860,38.099,38.136,37.164,39.360
10.383,0.00040,0.00483,0.00159,0.03038,-0.02461,0.97009,38.099,38.136,37.164,39.360
10.393,0.00064,0.00483,0.00163,0.02539,-0.02636,0.96954,38.099,38.136,37.248,39.470
10.403,0.00064,0.00470,0.00168,0.02839,-0.02500,0.96966,38.099,38.136,37.248,39.470
10.413,0.00041,0.00452,0.00168,0.02882,-0.02562,0.97040,38.099,38.136,37.248,39.360
10.423,0.00033,0.00448,0.00154,0.02952,-0.02976,0.96880,38.099,38.136,37.248,39.470
10.433,0.00028,0.00443,0.00136,0.02917,-0.02718,0.96868,38.099,38.136,37.248,39.581
10.443,0.00024,0.00444,0.00123,0.02933,-0.02625,0.96829,38.099,38.120,37.248,39.249
10.453,0.00050,0.00444,0.00119,0.02859,-0.02562,0.96642,38.099,38.120,37.248,39.470
10.463,0.00050,0.00453,0.00127,0.02722,-0.02554,0.96537,38.099,38.120,37.248,39.470
10.473,0.00055,0.00444,0.00136,0.02905,-0.03128,0.96907,38.099,38.120,37.248,39.470
10.483,0.00077,0.00430,0.00150,0.02601,-0.02812,0.96817,38.099,38.120,37.248,39.360
10.493,0.00073,0.00426,0.00163,0.02656,-0.02792,0.96903,38.099,38.120,37.248,39.360
10.503,0.00068,0.00430,0.00163,0.03295,-0.02566,0.96810,38.099,38.120,37.248,39.360
10.513,0.00073,0.00439,0.00168,0.03015,-0.02539,0.97141,38.099,38.120,37.248,39.470
10.523,0.00064,0.00462,0.00159,0.02484,-0.02808,0.96946,38.099,38.120,37.248,39.470
10.533,0.00055,0.00475,0.00145,0.02590,-0.03081,0.96786,38.099,38.120,37.248,39.249
10.543,0.00064,0.00479,0.00145,0.02995,-0.02917,0.96786,38.102,38.120,37.248,39.139
10.553,0.00064,0.00479,0.00150,0.03093,-0.02547,0.96903,38.102,38.120,37.248,39.360
10.563,0.00082,0.00475,0.00159,0.02792,-0.02730,0.96763,38.102,38.120,37.248,39.360
10.573,0.00073,0.00466,0.00177,0.02691,-0.02781,0.97001,38.102,38.120,37.248,39.139
10.583,0.00073,0.00462,0.00185,0.02742,-0.02769,0.97098,38.102,38.120,37.248,39.470
10.593,0.00088,0.00448,0.00185,0.03069,-0.02839,0.96810,38.102,38.120,37.094,39.360
10.603,0.00096,0.00435,0.00190,0.02722,-0.02827,0.96841,38.102,38.120,37.094,39.360
10.613,0.00092,0.00430,0.00185,0.02800,-0.02687,0.96408,38.102,38.120,37.094,39.139
10.623,0.00105,0.00422,0.00172,0.02839,-0.02391,0.96810,38.102,38.120,37.094,39.470
10.633,0.00128,0.00417,0.00163,0.02800,-0.02535,0.96802,38.102,38.120,37.094,39.470
10.643,0.00137,0.00415,0.00163,0.02847,-0.02691,0.96603,38.102,38.060,37.094,39.470
10.653,0.00132,0.00410,0.00177,0.03069,-0.02523,0.96283,38.102,38.060,37.094,39.249
10.663,0.00114,0.00406,0.00199,0.02590,-0.02566,0.96751,38.102,38.060,37.094,39.360
10.673,0.00101,0.00397,0.00199,0.03077,-0.02968,0.96541,38.102,38.060,37.094,39.470
10.683,0.00074,0.00397,0.00208,0.02504,-0.02894,0.96860,38.102,38.060,37.094,39.139
10.693,0.00056,0.00406,0.00199,0.02948,-0.02621,0.96767,38.102,38.060,37.094,39.249
10.703,0.00047,0.00410,0.00194,0.02964,-0.02578,0.97071,38.102,38.060,37.094,39.470
10.713,0.00056,0.00433,0.00185,0.02590,-0.02278,0.96580,38.102,38.060,37.094,39.470
10.723,0.00039,0.00464,0.00181,0.02679,-0.02773,0.96751,38.102,38.060,37.094,39.581
10.733,0.00034,0.00486,0.00177,0.02578,-0.02816,0.96782,38.102,38.060,37.094,39.249
10.743,0.00030,0.00486,0.00172,0.02629,-0.02500,0.97013,38.102,38.060,37.094,39.360
10.753,0.00047,0.00482,0.00172,0.02297,-0.02890,0.96860,38.095,38.060,37.094,39.360
10.763,0.00007,0.00477,0.00177,0.02605,-0.02816,0.96681,38.095,38.060,37.094,39.360
10.773,-0.00006,0.00482,0.00168,0.02465,-0.03003,0.96689,38.095,38.060,37.094,39.470
10.783,-0.00002,0.00486,0.00154,0.02851,-0.02968,0.96962,38.095,38.060,37.094,39.470
10.793,0.00017,0.00500,0.00150,0.01950,-0.02831,0.96923,38.095,38.060,37.115,39.470
10.803,0.00052,0.00508,0.00159,0.02937,-0.02664,0.96381,38.095,38.060,37.115,39.360
10.813,0.00043,0.00500,0.00163,0.03062,-0.02640,0.96853,38.095,38.060,37.115,39.360
10.823,0.00043,0.00482,0.00181,0.02500,-0.02453,0.97091,38.095,38.060,37.115,39.470
10.833,0.00039,0.00482,0.00195,0.02211,-0.02835,0.97001,38.095,38.060,37.115,39.581
10.843,0.00030,0.00468,0.00204,0.02516,-0.02882,0.96736,38.095,38.183,37.115,39.470
10.853,0.00021,0.00468,0.00199,0.02675,-0.02738,0.96927,38.095,38.183,37.115,39.360
10.863,0.00012,0.00486,0.00181,0.02399,-0.02820,0.96732,38.095,38.183,37.115,39.360
10.873,0.00021,0.00491,0.00172,0.02586,-0.02952,0.96888,38.095,38.183,37.115,39.470
10.883,0.00012,0.00468,0.00172,0.02847,-0.02726,0.97067,38.095,38.183,37.115,39.470
10.893,0.00039,0.00450,0.00181,0.02960,-0.02453,0.96716,38.095,38.183,37.115,39.360
10.903,0.00043,0.00428,0.00190,0.02941,-0.02332,0.96576,38.095,38.183,37.115,39.360
10.913,0.00043,0.00415,0.00204,0.02574,-0.02161,0.96895,38.095,38.183,37.115,39.470
10.923,0.00048,0.00415,0.00195,0.02313,-0.02239,0.96669,38.095,38.183,37.115,39.360
10.933,0.00030,0.00419,0.00181,0.02785,-0.02391,0.97028,38.095,38.183,37.115,39.360
10.943,0.00057,0.00401,0.00159,0.03151,-0.02703,0.96938,38.095,38.183,37.115,39.470
10.953,0.00057,0.00397,0.00136,0.02722,-0.02707,0.96931,38.104,38.183,37.115,39.360
10.963,0.00079,0.00397,0.00123,0.02324,-0.02348,0.96927,38.104,38.183,37.115,39.249
10.973,0.00070,0.00393,0.00118,0.03022,-0.02492,0.96833,38.104,38.183,37.115,39.249
10.983,0.00066,0.00393,0.00127,0.02492,-0.02960,0.96876,38.104,38.183,37.115,39.360
10.993,0.00080,0.00397,0.00141,0.02773,-0.03026,0.96708,38.104,38.183,37.173,39.249
11.003,0.00085,0.00419,0.00145,0.02274,-0.02808,0.96860,38.104,38.183,37.173,39.360
11.013,0.00076,0.00437,0.00141,0.03284,-0.02781,0.96701,38.104,38.183,37.173,39.470
11.023,0.00080,0.00446,0.00127,0.02473,-0.02812,0.96607,38.104,38.183,37.173,39.360
11.033,0.00080,0.00459,0.00123,0.02484,-0.02703,0.96642,38.104,38.183,37.173,39.581
11.043,0.00076,0.00473,0.00114,0.02683,-0.02976,0.96864,38.104,38.183,37.173,39.581
11.053,0.00076,0.00476,0.00114,0.02625,-0.02508,0.96864,38.104,38.210,37.173,39.360
11.063,0.00071,0.00485,0.00114,0.03003,-0.02063,0.96775,38.104,38.210,37.173,39.249
11.073,0.00058,0.00503,0.00123,0.03276,-0.02430,0.96821,38.104,38.210,37.173,39.470
11.083,0.00040,0.00494,0.00127,0.02870,-0.02804,0.96895,38.104,38.210,37.173,39.470
11.093,0.00031,0.00472,0.00123,0.03346,-0.02582,0.97083,38.104,38.210,37.173,39.470
11.103,0.00027,0.00458,0.00114,0.02578,-0.02671,0.97075,38.104,38.210,37.173,39.360
11.113,0.00027,0.00445,0.00105,0.02367,-0.02597,0.97094,38.104,38.210,37.173,39.360
11.123,0.00027,0.00436,0.00100,0.02629,-0.02851,0.96603,38.104,38.210,37.173,39.360
11.133,0.00027,0.00427,0.00100,0.02668,-0.03151,0.96981,38.104,38.210,37.173,39.581
11.143,0.00044,0.00423,0.00105,0.02648,-0.02671,0.96697,38.104,38.210,37.173,39.470
11.153,0.00031,0.00405,0.00114,0.03190,-0.02792,0.96681,38.094,38.210,37.173,39.470
11.163,0.00027,0.00392,0.00128,0.03167,-0.02453,0.96677,38.094,38.210,37.173,39.360
11.173,0.00027,0.00383,0.00141,0.02484,-0.02570,0.96685,38.094,38.210,37.173,39.360
11.183,0.00022,0.00383,0.00146,0.02980,-0.03069,0.96767,38.094,38.210,37.173,39.470
11.193,0.00035,0.00396,0.00146,0.02488,-0.02613,0.96603,38.094,38.210,37.130,39.470
11.203,0.00012,0.00405,0.00155,0.02640,-0.02867,0.96701,38.094,38.210,37.130,39.360
11.213,0.00017,0.00392,0.00168,0.02668,-0.02640,0.96950,38.094,38.210,37.130,39.470
11.223,0.00026,0.00360,0.00181,0.02925,-0.02293,0.96693,38.094,38.210,37.130,39.470
11.233,0.00026,0.00351,0.00195,0.03299,-0.02839,0.96958,38.094,38.210,37.130,39.470
11.243,0.00026,0.00356,0.00213,0.02613,-0.02835,0.96626,38.094,38.210,37.130,39.139
11.253,0.00017,0.00360,0.00226,0.02640,-0.02831,0.96966,38.094,38.110,37.130,39.470
11.263,0.00004,0.00368,0.00235,0.02605,-0.02917,0.96747,38.094,38.110,37.130,39.360
11.273,-0.00001,0.00377,0.00231,0.02516,-0.02453,0.96884,38.094,38.110,37.130,39.470
11.283,0.00008,0.00382,0.00222,0.02629,-0.02699,0.96681,38.094,38.110,37.130,39.360
11.293,0.00008,0.00377,0.00213,0.02761,-0.02718,0.96505,38.094,38.110,37.130,39.470
11.303,-0.00001,0.00373,0.00213,0.02562,-0.02558,0.96946,38.094,38.110,37.130,39.360
11.313,-0.00014,0.00368,0.00217,0.02371,-0.03085,0.97231,38.094,38.110,37.130,39.470
11.323,-0.00014,0.00360,0.00231,0.02605,-0.02937,0.96634,38.094,38.110,37.130,39.470
11.333,0.00008,0.00360,0.00226,0.02317,-0.02699,0.96775,38.094,38.110,37.130,39.470
11.343,0.00004,0.00395,0.00217,0.02418,-0.02746,0.96895,38.094,38.110,37.130,39.360
11.353,0.00004,0.00435,0.00199,0.02839,-0.03104,0.96747,38.101,38.110,37.130,39.139
11.363,0.00008,0.00453,0.00190,0.02929,-0.02734,0.96654,38.101,38.110,37.130,39.470
11.373,0.00021,0.00462,0.00177,0.02652,-0.02633,0.96654,38.101,38.110,37.130,39.470
11.383,0.00026,0.00475,0.00168,0.02980,-0.03042,0.96373,38.101,38.110,37.130,39.581
11.393,0.00030,0.00484,0.00168,0.02629,-0.02535,0.96825,38.101,38.110,37.130,39.360
11.403,0.00026,0.00502,0.00181,0.02734,-0.02660,0.96564,38.101,38.110,37.153,39.360
11.413,0.00040,0.00511,0.00199,0.03065,-0.03054,0.96841,38.101,38.110,37.153,39.249
11.423,0.00035,0.00489,0.00212,0.03054,-0.02812,0.96853,38.101,38.110,37.153,39.470
11.433,0.00031,0.00484,0.00226,0.02726,-0.02847,0.96853,38.101,38.110,37.153,39.581
11.443,0.00044,0.00484,0.00230,0.02863,-0.02851,0.96599,38.101,38.110,37.153,39.470
11.453,0.00031,0.00475,0.00235,0.02948,-0.02660,0.97223,38.101,38.255,37.153,39.470
11.463,0.00035,0.00479,0.00235,0.02437,-0.02710,0.96810,38.101,38.255,37.153,39.581
11.473,0.00017,0.00466,0.00230,0.02652,-0.02882,0.96810,38.101,38.255,37.153,39.360
11.483,-0.00000,0.00434,0.00239,0.02703,-0.02566,0.96736,38.101,38.255,37.153,39.139
11.493,0.00004,0.00390,0.00235,0.02679,-0.02426,0.97001,38.101,38.255,37.153,39.470
11.503,0.00017,0.00359,0.00221,0.02644,-0.02512,0.97032,38.101,38.255,37.153,39.249
11.513,0.00044,0.00327,0.00199,0.02890,-0.02473,0.96845,38.101,38.255,37.153,39.139
11.523,0.00040,0.00305,0.00177,0.02652,-0.02562,0.96934,38.101,38.255,37.153,39.360
11.533,0.00022,0.00296,0.00154,0.02714,-0.02535,0.96474,38.101,38.255,37.153,39.470
11.543,0.00004,0.00287,0.00132,0.02831,-0.02582,0.96853,38.101,38.255,37.153,39.360
11.553,0.00017,0.00292,0.00118,0.02387,-0.02683,0.96938,38.104,38.255,37.153,39.470
11.563,0.00031,0.00283,0.00109,0.02640,-0.02718,0.96502,38.104,38.255,37.153,39.470
11.573,0.00026,0.00278,0.00114,0.02886,-0.02469,0.96915,38.104,38.255,37.153,39.470
11.583,0.00026,0.00274,0.00105,0.02644,-0.02570,0.96934,38.104,38.255,37.153,39.470
11.593,0.00022,0.00274,0.00105,0.02691,-0.02707,0.96775,38.104,38.255,37.153,39.470
11.603,0.00053,0.00296,0.00105,0.02574,-0.02839,0.96689,38.104,38.255,37.144,39.470
11.613,0.00053,0.00332,0.00096,0.02984,-0.03366,0.96646,38.104,38.255,37.144,39.360
11.623,0.00053,0.00368,0.00105,0.02625,-0.02909,0.96821,38.104,38.255,37.144,39.360
11.633,0.00031,0.00390,0.00127,0.02640,-0.02593,0.96689,38.104,38.255,37.144,39.360
11.643,-0.00014,0.00412,0.00154,0.02863,-0.02679,0.96759,38.104,38.255,37.144,39.470
11.653,-0.00010,0.00424,0.00172,0.02301,-0.02734,0.96704,38.104,38.174,37.144,39.360
11.663,-0.00014,0.00424,0.00190,0.02898,-0.02547,0.96966,38.104,38.174,37.144,39.360
11.673,-0.00005,0.00442,0.00208,0.02375,-0.02695,0.96954,38.104,38.174,37.144,39.360
11.683,-0.00018,0.00460,0.00221,0.02792,-0.02827,0.96915,38.104,38.174,37.144,39.470
11.693,0.00008,0.00464,0.00217,0.02566,-0.02652,0.96919,38.104,38.174,37.144,39.470
11.703,0.00039,0.00469,0.00212,0.02683,-0.02648,0.96560,38.104,38.174,37.144,39.360
11.713,0.00039,0.00473,0.00212,0.02613,-0.02566,0.97309,38.104,38.174,37.144,39.249
11.723,0.00048,0.00478,0.00208,0.02964,-0.02742,0.96814,38.104,38.174,37.144,39.470
11.733,0.00044,0.00482,0.00208,0.02679,-0.02621,0.96997,38.104,38.174,37.144,39.249
11.743,0.00053,0.00491,0.00208,0.03182,-0.03015,0.96966,38.104,38.174,37.144,39.470
11.753,0.00048,0.00478,0.00199,0.02196,-0.02340,0.96798,38.097,38.174,37.144,39.360
11.763,0.00071,0.00455,0.00181,0.02718,-0.02917,0.96689,38.097,38.174,37.144,39.470
11.773,0.00084,0.00437,0.00163,0.02785,-0.02422,0.96825,38.097,38.174,37.144,39.360
11.783,0.00084,0.00437,0.00150,0.02960,-0.02430,0.97165,38.097,38.174,37.144,39.470
11.793,0.00093,0.00446,0.00137,0.02761,-0.02722,0.96915,38.097,38.174,37.144,39.470
11.803,0.00102,0.00460,0.00128,0.02890,-0.02722,0.96786,38.097,38.174,37.154,39.470
11.813,0.00102,0.00473,0.00119,0.02905,-0.01911,0.97106,38.097,38.174,37.154,39.360
11.823,0.00093,0.00460,0.00119,0.02843,-0.02461,0.96977,38.097,38.174,37.154,39.360
11.833,0.00080,0.00442,0.00110,0.02886,-0.02516,0.96942,38.097,38.174,37.154,39.470
11.843,0.00066,0.00437,0.00101,0.02800,-0.02508,0.97032,38.097,38.174,37.154,39.470
11.853,0.00071,0.00432,0.00096,0.02980,-0.02508,0.97102,38.097,38.209,37.154,39.470
11.863,0.00057,0.00418,0.00105,0.02750,-0.02554,0.96888,38.097,38.209,37.154,39.360
11.873,0.00057,0.00414,0.00128,0.02792,-0.03186,0.96685,38.097,38.209,37.154,39.470
11.883,0.00057,0.00418,0.00145,0.02668,-0.02773,0.96572,38.097,38.209,37.154,39.470
11.893,0.00035,0.00414,0.00159,0.02761,-0.02551,0.96876,38.097,38.209,37.154,39.470
11.903,0.00035,0.00418,0.00172,0.02473,-0.02633,0.97001,38.097,38.209,37.154,39.581
11.913,0.00044,0.00423,0.00177,0.02781,-0.02504,0.96740,38.097,38.209,37.154,39.470
11.923,0.00062,0.00418,0.00177,0.02566,-0.02231,0.96685,38.097,38.209,37.154,39.470
11.933,0.00035,0.00414,0.00177,0.03085,-0.02508,0.97013,38.097,38.209,37.154,39.360
11.943,0.00040,0.00423,0.00172,0.02769,-0.02757,0.96895,38.097,38.209,37.154,39.581
11.953,0.00026,0.00449,0.00159,0.02718,-0.03128,0.96568,38.105,38.209,37.154,39.470
11.963,0.00026,0.00449,0.00167,0.02769,-0.02437,0.96856,38.105,38.209,37.154,39.470
11.973,0.00057,0.00436,0.00181,0.02629,-0.02765,0.96373,38.105,38.209,37.154,39.470
11.983,0.00053,0.00432,0.00190,0.02948,-0.02769,0.96817,38.105,38.209,37.154,39.360
11.993,0.00053,0.00441,0.00185,0.02722,-0.02808,0.96942,38.105,38.209,37.154,39.360
12.003,0.00030,0.00449,0.00172,0.02867,-0.02539,0.96716,38.105,38.209,37.141,39.470
12.013,0.00030,0.00472,0.00167,0.02656,-0.02734,0.96962,38.105,38.209,37.141,39.470
12.023,0.00030,0.00485,0.00159,0.02753,-0.02644,0.96779,38.105,38.209,37.141,39.470
12.033,0.00044,0.00463,0.00145,0.02675,-0.02617,0.96903,38.105,38.209,37.141,39.470
12.043,0.00030,0.00454,0.00136,0.03050,-0.02418,0.97141,38.105,38.209,37.141,39.470
12.053,0.00030,0.00460,0.00132,0.02812,-0.02944,0.96767,38.105,38.174,37.141,39.470
12.063,0.00053,0.00469,0.00118,0.02722,-0.02578,0.96697,38.105,38.174,37.141,39.470
12.073,0.00071,0.00478,0.00118,0.02944,-0.02223,0.97063,38.105,38.174,37.141,39.470
12.083,0.00075,0.00482,0.00136,0.02847,-0.02824,0.96845,38.105,38.174,37.141,39.470
12.093,0.00071,0.00491,0.00141,0.02488,-0.02781,0.97071,38.105,38.174,37.141,39.360
12.103,0.00062,0.00478,0.00141,0.02683,-0.02699,0.96708,38.105,38.174,37.141,39.470
12.113,0.00071,0.00464,0.00150,0.02527,-0.02707,0.96732,38.105,38.174,37.141,39.249
12.123,0.00084,0.00446,0.00150,0.03054,-0.02375,0.96829,38.105,38.174,37.141,39.360
12.133,0.00106,0.00437,0.00136,0.02582,-0.02831,0.96662,38.105,38.174,37.141,39.470
12.143,0.00111,0.00428,0.00118,0.02859,-0.02469,0.96970,38.105,38.174,37.141,39.360
12.153,0.00097,0.00420,0.00114,0.02816,-0.02750,0.96782,38.101,38.174,37.141,39.470
12.163,0.00093,0.00424,0.00114,0.02800,-0.02586,0.96662,38.101,38.174,37.141,39.470
12.173,0.00106,0.00415,0.00123,0.02399,-0.02235,0.96895,38.101,38.174,37.141,39.470
12.183,0.00093,0.00420,0.00123,0.02469,-0.02738,0.96759,38.101,38.174,37.141,39.470
12.193,0.00066,0.00428,0.00110,0.02902,-0.02625,0.96701,38.101,38.174,37.141,39.470
12.203,0.00053,0.00433,0.00092,0.02691,-0.02808,0.96814,38.101,38.174,37.171,39.581
12.213,0.00062,0.00446,0.00078,0.02746,-0.02625,0.96810,38.101,38.174,37.171,39.360
12.223,0.00071,0.00437,0.00060,0.02457,-0.02048,0.96895,38.101,38.174,37.171,39.470
12.233,0.00080,0.00415,0.00060,0.02516,-0.02746,0.96946,38.101,38.174,37.171,39.360
12.243,0.00076,0.00402,0.00069,0.02773,-0.02691,0.96693,38.101,38.174,37.171,39.470
12.253,0.00080,0.00406,0.00078,0.02746,-0.02683,0.97079,38.101,38.429,37.171,39.139
12.263,0.00085,0.00419,0.00087,0.02695,-0.03225,0.97020,38.101,38.429,37.171,39.470
12.273,0.00067,0.00432,0.00105,0.02640,-0.02921,0.96817,38.101,38.429,37.171,39.581
12.283,0.00089,0.00459,0.00127,0.02457,-0.02644,0.96502,38.101,38.429,37.171,39.360
12.293,0.00098,0.00455,0.00141,0.02703,-0.02980,0.96970,38.101,38.429,37.171,39.360
12.303,0.00098,0.00432,0.00136,0.02839,-0.02527,0.96697,38.101,38.429,37.171,39.249
12.313,0.00093,0.00397,0.00141,0.02270,-0.02516,0.97161,38.101,38.429,37.171,39.470
12.323,0.00102,0.00366,0.00168,0.03034,-0.02714,0.96428,38.101,38.429,37.171,39.470
12.333,0.00098,0.00348,0.00181,0.02554,-0.02820,0.97020,38.101,38.429,37.171,39.360
12.343,0.00089,0.00339,0.00177,0.02527,-0.02231,0.96732,38.101,38.429,37.171,39.470
12.353,0.00076,0.00352,0.00176,0.02379,-0.02492,0.96950,38.112,38.429,37.171,39.470
12.363,0.00058,0.00375,0.00163,0.02683,-0.02578,0.96829,38.112,38.429,37.171,39.249
12.373,0.00044,0.00383,0.00154,0.02882,-0.02656,0.97040,38.112,38.429,37.171,39.249
12.383,0.00049,0.00375,0.00154,0.02999,-0.02504,0.96439,38.112,38.429,37.171,39.470
12.393,0.00044,0.00366,0.00172,0.02601,-0.02699,0.96895,38.112,38.429,37.171,39.360
12.403,0.00062,0.00370,0.00172,0.02683,-0.02921,0.96572,38.112,38.429,37.158,39.360
12.413,0.00066,0.00366,0.00158,0.02738,-0.02695,0.96743,38.112,38.429,37.158,39.470
12.423,0.00053,0.00375,0.00149,0.02792,-0.02683,0.96482,38.112,38.429,37.158,39.360
12.433,0.00031,0.00366,0.00154,0.02769,-0.02535,0.96786,38.112,38.429,37.158,39.360
12.443,0.00066,0.00370,0.00154,0.02531,-0.02808,0.96560,38.112,38.429,37.158,39.470
12.453,0.00080,0.00386,0.00149,0.02734,-0.02461,0.96989,38.112,38.123,37.158,39.470
12.463,0.00080,0.00386,0.00145,0.02738,-0.02952,0.96798,38.112,38.123,37.158,39.470
12.473,0.00089,0.00386,0.00140,0.03026,-0.02722,0.97137,38.112,38.123,37.158,39.139
12.483,0.00084,0.00395,0.00140,0.02933,-0.02765,0.96934,38.112,38.123,37.158,39.581
12.493,0.00093,0.00395,0.00140,0.02984,-0.02664,0.96767,38.112,38.123,37.158,39.470
12.503,0.00107,0.00377,0.00127,0.02718,-0.02574,0.97075,38.112,38.123,37.158,39.470
12.513,0.00102,0.00364,0.00105,0.03225,-0.02796,0.96701,38.112,38.123,37.158,39.360
12.523,0.00111,0.00355,0.00078,0.02582,-0.02309,0.96786,38.112,38.123,37.158,39.470
12.533,0.00133,0.00350,0.00069,0.02504,-0.02980,0.96837,38.112,38.123,37.158,39.360
12.543,0.00120,0.00359,0.00069,0.02679,-0.02859,0.97032,38.112,38.123,37.158,39.470
12.553,0.00151,0.00359,0.00083,0.02636,-0.02898,0.96845,38.105,38.123,37.158,39.470
12.563,0.00169,0.00350,0.00100,0.02691,-0.02597,0.97036,38.105,38.123,37.158,39.249
12.573,0.00133,0.00332,0.00109,0.03038,-0.02453,0.96837,38.105,38.123,37.158,39.581
12.583,0.00133,0.00319,0.00114,0.03054,-0.02492,0.97005,38.105,38.123,37.158,39.360
12.593,0.00124,0.00310,0.00114,0.02668,-0.02835,0.96619,38.105,38.123,37.158,39.360
12.603,0.00101,0.00306,0.00114,0.02738,-0.02886,0.97044,38.105,38.123,37.104,39.249
12.613,0.00097,0.00306,0.00123,0.02820,-0.03253,0.97075,38.105,38.123,37.104,39.581
12.623,0.00097,0.00310,0.00132,0.02785,-0.02582,0.96872,38.105,38.123,37.104,39.360
12.633,0.00097,0.00319,0.00136,0.02894,-0.03030,0.96888,38.105,38.123,37.104,39.360
12.643,0.00079,0.00328,0.00145,0.02722,-0.02266,0.96486,38.105,38.123,37.104,39.470
12.653,0.00070,0.00335,0.00159,0.02668,-0.02851,0.97067,38.105,37.928,37.104,39.360
12.663,0.00070,0.00326,0.00159,0.02445,-0.02586,0.96845,38.105,37.928,37.104,39.470
12.673,0.00061,0.00317,0.00154,0.02582,-0.02586,0.96743,38.105,37.928,37.104,39.581
12.683,0.00034,0.00340,0.00136,0.02894,-0.02558,0.96981,38.105,37.928,37.104,39.470
12.693,0.00030,0.00380,0.00118,0.02742,-0.02629,0.96993,38.105,37.928,37.104,39.470
12.703,0.00043,0.00397,0.00118,0.02640,-0.02523,0.96790,38.105,37.928,37.104,39.470
12.713,0.00039,0.00406,0.00118,0.02344,-0.02664,0.96759,38.105,37.928,37.104,39.360
12.723,0.00025,0.00420,0.00127,0.02266,-0.02925,0.97067,38.105,37.928,37.104,39.470
12.733,0.00030,0.00433,0.00141,0.02890,-0.02593,0.96884,38.105,37.928,37.104,39.470
12.743,0.00039,0.00433,0.00141,0.02941,-0.02882,0.96895,38.105,37.928,37.104,39.470
12.753,0.00034,0.00464,0.00136,0.02570,-0.02851,0.96630,38.107,37.928,37.104,39.360
12.813,-0.00020,0.00451,0.00123,0.02944,-0.02683,0.96716,38.107,37.928,37.089,39.470
12.823,-0.00015,0.00451,0.00118,0.02765,-0.02519,0.96498,38.107,37.928,37.089,39.249
12.833,-0.00015,0.00438,0.00114,0.03136,-0.02609,0.97009,38.107,37.928,37.089,39.470
12.843,-0.00028,0.00433,0.00105,0.02118,-0.02855,0.96782,38.107,37.928,37.089,39.360
12.853,-0.00015,0.00421,0.00096,0.02738,-0.02898,0.96985,38.107,38.125,37.089,39.360
12.863,-0.00020,0.00412,0.00096,0.02640,-0.02687,0.96463,38.107,38.125,37.089,39.360
12.873,-0.00033,0.00417,0.00091,0.02601,-0.02609,0.96958,38.107,38.125,37.089,39.470
12.883,-0.00046,0.00417,0.00091,0.02504,-0.02516,0.96829,38.107,38.125,37.089,39.360
12.893,-0.00042,0.00417,0.00109,0.02691,-0.02902,0.97009,38.107,38.125,37.089,39.470
12.903,-0.00046,0.00395,0.00123,0.02539,-0.02352,0.96833,38.107,38.125,37.089,39.470
12.913,-0.00020,0.00381,0.00141,0.02964,-0.02531,0.96771,38.107,38.125,37.089,39.470
12.923,-0.00024,0.00368,0.00145,0.03085,-0.02336,0.96712,38.107,38.125,37.089,39.470
12.933,-0.00020,0.00363,0.00145,0.02535,-0.02562,0.96385,38.107,38.125,37.089,39.249
12.943,-0.00033,0.00368,0.00145,0.02668,-0.02909,0.96907,38.107,38.125,37.089,39.360
12.953,-0.00028,0.00390,0.00158,0.02843,-0.02937,0.96720,38.110,38.125,37.089,39.470
12.963,-0.00028,0.00430,0.00167,0.02972,-0.02406,0.96630,38.110,38.125,37.089,39.470
12.973,-0.00037,0.00430,0.00181,0.02289,-0.02710,0.96634,38.110,38.125,37.089,39.470
12.983,-0.01223,0.00564,0.00190,0.03288,-0.02613,0.97083,38.110,38.125,37.089,39.360
12.993,-0.02408,0.01210,0.00203,0.04181,-0.01736,0.96728,38.110,38.125,37.089,39.691
13.003,-0.11209,0.05047,0.00207,0.00207,-0.04941,0.96942,38.110,38.125,36.836,39.470
13.013,-0.10095,0.08950,0.00033,0.03483,-0.01950,0.97523,38.110,38.125,36.836,39.360
13.023,-0.11775,0.10559,-0.00284,0.03377,-0.01927,0.96303,38.110,38.125,36.836,39.470
13.033,-0.07208,0.10974,-0.05895,0.03927,-0.02044,0.97352,38.110,38.125,36.836,39.470
13.043,-0.02814,0.07132,-0.25414,0.04676,-0.00187,0.96170,38.110,38.125,36.836,39.470
13.053,-0.01268,0.03961,-0.58042,0.01322,-0.02332,0.96860,38.110,37.958,36.836,39.360
13.063,-0.00630,0.01617,-1.11602,-0.02379,-0.06735,0.97149,38.110,37.958,36.836,39.470
13.073,0.00898,-0.00116,-2.35970,-0.06587,-0.17468,0.91303,38.110,37.958,36.836,39.470
13.083,-0.00118,-0.01391,-5.18187,-0.09770,-0.14254,1.03525,38.110,37.958,36.836,39.470
13.093,-0.00301,-0.02447,-10.12069,-0.08931,-0.11021,1.34074,38.110,37.958,36.836,39.581
13.103,-0.03335,-0.03316,-16.96659,0.02172,-0.05304,0.83838,38.110,37.958,36.836,39.360
13.113,-0.22693,-0.01560,-24.86135,-0.04029,0.04192,1.04851,38.110,37.958,36.836,39.470
13.123,-0.25772,0.06305,-33.25763,0.09309,0.03545,0.94532,38.110,37.958,36.836,39.470
13.133,-0.20175,0.06310,-41.69970,0.01447,0.07683,1.17265,38.110,37.958,36.836,39.360
13.143,-0.22488,0.04759,-49.56749,0.16548,0.01396,0.90589,38.110,37.958,36.836,39.470
13.153,-0.22140,0.03070,-56.51068,0.08202,0.03920,0.90975,38.108,37.958,36.836,39.470
13.163,-0.20442,0.01328,-62.45828,0.06423,-0.01451,0.94641,38.108,37.958,36.836,39.470
13.173,-0.08558,-0.02950,-67.35735,0.02196,0.02617,1.01127,38.108,37.958,36.836,39.360
13.183,-0.10608,-0.11461,-71.12947,0.01817,-0.05776,1.10300,38.108,37.958,36.836,39.470
13.193,-0.09128,-0.15156,-73.53255,0.07075,-0.01720,1.01560,38.108,37.958,36.836,39.360
13.203,-0.12526,-0.17045,-73.95924,0.03101,-0.02223,0.94965,38.108,37.958,37.175,39.470
13.213,-0.13351,-0.16189,-71.80116,0.02726,-0.02008,0.96232,38.108,37.958,37.175,39.470
13.223,-0.22922,-0.12990,-67.11360,0.04754,-0.01092,0.96790,38.108,37.958,37.175,39.470
13.233,-0.35297,-0.00392,-60.35501,-0.01821,-0.06743,0.97902,38.108,37.958,37.175,39.360
13.243,-0.16532,0.07633,-52.26864,0.07219,-0.01111,0.96681,38.108,37.958,37.175,39.360
13.253,-0.14015,0.03904,-42.97029,0.04754,-0.04754,0.98062,38.108,38.060,37.175,39.470
13.263,-0.07990,0.02206,-32.15760,0.09750,0.05058,0.86132,38.108,38.060,37.175,39.360
13.273,-0.01422,0.00254,-19.93094,0.03869,-0.00144,0.91393,38.108,38.060,37.175,39.470
13.283,0.21171,-0.04670,-6.83319,-0.00858,0.01806,1.05694,38.108,38.060,37.175,39.470
13.293,0.16737,-0.14580,6.58171,0.01190,-0.04270,0.92188,38.108,38.060,37.175,39.470
13.303,0.00962,-0.10578,19.47898,0.00991,-0.03295,0.89298,38.108,38.060,37.175,39.360
13.313,0.01043,0.00816,31.20885,-0.02730,-0.04154,1.04684,38.108,38.060,37.175,39.360
13.323,-0.00143,0.08561,41.35727,0.02913,-0.04446,1.00546,38.108,38.060,37.175,39.691
13.333,-0.04505,0.14995,49.62113,-0.06092,-0.08451,1.31804,38.108,38.060,37.175,39.470
13.343,-0.10686,0.22905,55.76575,-0.01466,-0.07196,0.92356,38.108,38.060,37.175,39.470
13.353,-0.04853,0.27691,60.05484,-0.06103,-0.06123,0.98097,38.110,38.060,37.175,39.470
13.363,0.14291,0.19995,62.50898,0.09656,0.03214,0.96412,38.110,38.060,37.175,39.360
13.373,0.18934,0.09479,63.31295,0.02551,-0.03994,0.94946,38.110,38.060,37.175,39.581
13.383,0.27445,0.02113,62.78638,0.02020,-0.03491,0.97625,38.110,38.060,37.175,39.581
13.393,0.27726,-0.04719,60.52091,0.02172,-0.03693,0.96697,38.110,38.060,37.175,39.470
13.403,0.21233,-0.07637,56.04388,0.00448,-0.03877,0.97777,38.110,38.060,37.147,39.470
13.413,-0.05183,-0.01778,49.32485,0.00371,-0.04200,0.96751,38.110,38.060,37.147,39.470
13.423,-0.16087,0.13605,40.26028,0.03424,-0.02207,0.88230,38.110,38.060,37.147,39.470
13.433,-0.21372,0.21524,29.46431,0.03760,0.00722,1.01365,38.110,38.060,37.147,39.470
13.443,-0.26256,0.25062,17.69081,0.04473,-0.01611,1.02995,38.110,38.060,37.147,39.360
13.453,-0.28654,0.25175,5.29024,0.00094,-0.01186,1.05698,38.110,38.145,37.147,39.581
13.463,-0.21537,0.22100,-7.23950,0.04571,0.00195,1.05152,38.110,38.145,37.147,39.470
13.473,-0.15570,0.13602,-18.82339,0.03650,-0.02500,0.91322,38.110,38.145,37.147,39.581
13.483,-0.08779,0.05434,-28.63660,0.00215,-0.02274,1.02207,38.110,38.145,37.147,39.470
13.493,-0.15954,-0.00141,-35.92266,0.00885,-0.05729,0.97870,38.110,38.145,37.147,39.249
13.503,-0.19790,0.01419,-40.48190,0.03019,-0.09130,0.94977,38.110,38.145,37.147,39.470
13.513,-0.22963,0.03455,-42.81167,0.02800,-0.01295,0.96502,38.110,38.145,37.147,39.249
13.523,-0.24906,0.06071,-43.68481,0.03264,-0.02512,0.95991,38.110,38.145,37.147,39.360
13.533,-0.25815,0.07849,-43.85523,0.02890,-0.02609,0.97613,38.110,38.145,37.147,39.360
13.543,-0.22874,0.08535,-43.36819,0.01478,-0.05355,0.96954,38.110,38.145,37.147,39.581
13.553,-0.14381,0.06249,-41.40445,0.02270,-0.06302,0.96942,38.111,38.145,37.147,39.470
13.563,-0.08178,0.03331,-37.06377,0.01111,-0.01786,0.95277,38.111,38.145,37.147,39.470
13.573,0.00151,-0.00529,-30.12662,0.01158,-0.04528,0.93709,38.111,38.145,37.147,39.470
13.583,0.05026,-0.03242,-20.83511,0.00803,-0.04489,0.96993,38.111,38.145,37.147,39.470
13.593,0.21393,-0.07939,-9.80872,0.00187,-0.06454,1.02863,38.111,38.145,37.147,39.360
13.603,0.26700,-0.15715,1.69681,0.01459,-0.02972,0.87200,38.111,38.145,37.122,39.470
13.613,0.26540,-0.18398,12.20915,-0.00308,-0.02227,0.94033,38.111,38.145,37.122,39.360
13.623,0.35563,-0.19088,20.32816,0.08670,0.01459,0.96147,38.111,38.145,37.122,39.581
13.633,0.32221,-0.21726,25.30278,0.01494,-0.07336,0.96287,38.111,38.145,37.122,39.470
13.643,0.24904,-0.19931,27.27828,-0.05538,-0.06720,1.01770,38.111,38.145,37.122,39.360
13.653,0.04437,-0.12846,26.96278,-0.00448,-0.08003,0.95800,38.111,38.042,37.122,39.470
13.663,0.00779,-0.00614,25.21350,0.01556,-0.02239,0.97948,38.111,38.042,37.122,39.249
13.673,0.00681,0.03749,22.63579,0.04352,0.00975,0.95706,38.111,38.042,37.122,39.470
13.683,0.01256,0.04823,19.48913,0.09157,0.00971,1.00324,38.111,38.042,37.122,39.470
13.693,-0.00750,0.05340,15.55843,0.07511,0.03249,0.96424,38.111,38.042,37.122,39.360
13.703,-0.05968,0.06694,10.74752,0.10585,0.06922,0.98498,38.111,38.042,37.122,39.360
13.713,-0.38631,0.08619,5.32917,0.04676,0.00901,1.01209,38.111,38.042,37.122,39.470
13.723,-1.55115,0.15370,-0.55159,0.05866,0.03830,1.05374,38.111,38.042,37.122,39.470
13.733,-3.57483,0.25392,-6.33055,0.05195,0.03101,1.05136,38.111,38.042,37.122,39.360
13.743,-6.43639,0.29946,-11.08548,0.04524,-0.01435,1.01248,38.111,38.042,37.122,39.360
13.753,-9.84731,0.32317,-14.02148,0.02246,-0.05257,0.99653,38.111,38.042,37.122,39.360
13.763,-13.49280,0.33427,-14.94608,-0.00257,-0.08342,0.97691,38.111,38.042,37.122,39.249
13.773,-17.62138,0.30842,-14.34293,-0.03810,-0.09309,1.02629,38.111,38.042,37.122,39.360
13.783,-22.40047,0.24563,-12.70421,-0.02773,-0.07547,1.05725,38.111,38.042,37.122,39.360
13.793,-28.29761,0.12002,-10.25038,-0.02976,-0.08147,1.08580,38.111,38.042,37.122,39.470
13.803,-35.21244,0.04578,-7.26565,-0.02987,-0.10351,1.08440,38.111,38.042,37.153,39.470
13.813,-43.00586,-0.00257,-4.14917,-0.02601,-0.12043,1.09664,38.111,38.042,37.153,39.360
13.823,-51.44398,-0.04041,-1.31027,-0.02215,-0.12940,0.83327,38.111,38.042,37.153,39.470
13.833,-60.27719,-0.07481,0.92623,-0.00172,-0.16875,0.94895,38.111,38.042,37.153,39.360
13.843,-69.07137,-0.11086,2.40695,0.00097,-0.13841,0.77906,38.111,38.042,37.153,39.470
13.853,-77.23152,-0.13898,3.25237,-0.00253,-0.14836,1.06505,38.111,38.065,37.153,39.470
13.863,-84.28410,-0.14433,3.55012,0.04719,-0.17238,1.06630,38.111,38.065,37.153,39.470
13.873,-90.20944,-0.11002,3.32828,0.03834,-0.15362,1.02161,38.111,38.065,37.153,39.470
13.883,-95.03310,-0.03293,2.64640,0.02352,-0.18447,0.93701,38.111,38.065,37.153,39.581
13.893,-98.68109,0.07977,1.67235,0.07168,-0.23419,0.85273,38.111,38.065,37.153,39.581
13.903,-100.87667,0.21122,0.53919,0.06685,-0.24691,0.88351,38.111,38.065,37.153,39.581
13.913,-101.41859,0.36728,-0.61261,0.06919,-0.31715,0.89657,38.111,38.065,37.153,39.470
13.923,-100.35807,0.55395,-1.69771,0.06209,-0.33770,0.88082,38.111,38.065,37.153,39.360
13.933,-97.78317,0.73687,-2.61578,0.06536,-0.32815,0.87805,38.111,38.065,37.153,39.470
13.943,-93.81421,0.86432,-3.23870,0.04813,-0.34445,0.88413,38.111,38.065,37.153,39.360
13.953,-88.61218,0.89934,-3.48808,0.06747,-0.35377,0.87851,38.109,38.065,37.153,39.360
13.963,-82.33128,0.81089,-3.31242,0.08007,-0.36009,0.84544,38.109,38.065,37.153,39.360
13.973,-75.03967,0.59615,-2.70891,0.08436,-0.38083,0.84065,38.109,38.065,37.153,39.581
13.983,-66.78046,0.25325,-1.63543,0.04692,-0.39722,0.82898,38.109,38.065,37.153,39.470
13.993,-57.71014,-0.22071,-0.10893,0.04602,-0.39823,0.84552,38.109,38.065,37.153,39.470
14.003,-48.10369,-0.78606,1.75730,0.01030,-0.44698,0.88148,38.109,38.065,37.145,39.360
14.013,-38.41076,-1.39941,3.78229,0.01891,-0.37393,0.82235,38.109,38.065,37.145,39.802
14.023,-29.05654,-1.98031,5.66390,0.02531,-0.39842,0.85219,38.109,38.065,37.145,39.470
14.033,-20.27047,-2.46884,7.23994,-0.03257,-0.39936,0.87996,38.109,38.065,37.145,39.581
14.043,-11.92124,-2.87359,8.55725,0.01981,-0.37857,0.87407,38.109,38.065,37.145,39.470
14.053,-3.69759,-3.22627,9.71393,0.02270,-0.36406,0.88842,38.109,38.108,37.145,39.360
14.063,4.52736,-3.53307,10.71762,0.00429,-0.38505,0.88163,38.109,38.108,37.145,39.360
14.073,12.66688,-3.73882,11.35474,0.03510,-0.34808,0.88694,38.109,38.108,37.145,39.139
14.083,20.62387,-3.79657,11.47554,0.03276,-0.31321,0.90457,38.109,38.108,37.145,39.139
14.093,28.16186,-3.70241,11.13715,0.01342,-0.29219,0.92235,38.109,38.108,37.145,39.360
14.103,35.01235,-3.47211,10.40238,0.02348,-0.26520,0.93514,38.109,38.108,37.145,39.470
14.113,40.91457,-3.12404,9.29591,0.02699,-0.24562,0.94860,38.109,38.108,37.145,39.470
14.123,45.75338,-2.65998,7.86598,0.01825,-0.22990,0.95183,38.109,38.108,37.145,39.581
14.133,49.59560,-2.13794,6.25552,0.02679,-0.22288,0.95636,38.109,38.108,37.145,39.470
14.143,52.61652,-1.60561,4.66406,0.02660,-0.21368,0.95199,38.109,38.108,37.145,39.470
14.153,55.01656,-1.13495,3.28581,0.02773,-0.20904,0.95484,38.108,38.108,37.145,39.470
14.163,56.91747,-0.76906,2.23531,0.02543,-0.19972,0.95445,38.108,38.108,37.145,39.470
14.173,58.36060,-0.51269,1.52925,0.02558,-0.20007,0.95059,38.108,38.108,37.145,39.360
14.183,59.29995,-0.34131,1.05561,0.02352,-0.19114,0.94961,38.108,38.108,37.145,39.581
14.193,59.71196,-0.20736,0.65387,0.02773,-0.18264,0.95429,38.108,38.108,37.145,39.470
14.203,59.72743,-0.11507,0.36644,0.02434,-0.17967,0.94314,38.108,38.108,37.146,39.360
14.213,59.54121,-0.07372,0.23956,0.02648,-0.19204,0.92535,38.108,38.108,37.146,39.470
14.223,59.50311,-0.05656,0.16638,0.01970,-0.19063,0.90890,38.108,38.108,37.146,39.470
14.233,59.94003,-0.04404,0.06458,0.00538,-0.16715,0.90039,38.108,38.108,37.146,39.470
14.243,61.01472,-0.02007,-0.18726,0.01537,-0.12695,0.92379,38.108,38.108,37.146,39.581
14.253,62.51921,0.02387,-0.68463,0.02843,-0.08568,0.95581,38.108,37.872,37.146,39.470
14.263,64.18282,0.07859,-1.36777,0.04516,-0.05027,0.97539,38.108,37.872,37.146,39.470
14.273,65.79996,0.12970,-2.10044,0.04458,-0.05090,0.98530,38.108,37.872,37.146,39.470
14.283,67.21528,0.17132,-2.78299,0.03869,-0.03736,0.97726,38.108,37.872,37.146,39.470
14.293,68.37843,0.20073,-3.39517,0.02870,-0.03491,0.99298,38.108,37.872,37.146,39.470
14.303,69.25677,0.22074,-3.93797,0.01517,-0.03760,0.99216,38.108,37.872,37.146,39.470
14.313,69.76500,0.23367,-4.40726,0.00456,-0.05694,1.00792,38.108,37.872,37.146,39.470
14.323,68.88037,0.20171,-4.76131,-1.41125,0.01525,6.23005,38.108,37.872,37.146,39.360
14.333,64.72844,0.06424,-5.36669,-0.10409,0.10429,0.76463,38.108,37.872,37.146,39.470
14.343,60.43056,0.00172,-6.48108,0.16364,-0.03697,0.96712,38.108,37.872,37.146,39.470
14.353,55.53272,-0.08473,-7.80273,-0.01353,-0.03545,1.00912,38.114,37.872,37.146,39.470
14.363,50.03979,-0.13914,-9.25577,0.02699,0.02016,0.96108,38.114,37.872,37.146,39.470
14.373,43.95755,-0.19956,-10.50374,0.04169,0.02937,0.99836,38.114,37.872,37.146,39.470
14.383,37.58872,-0.35695,-11.17288,0.01942,0.06770,1.05300,38.114,37.872,37.146,39.470
14.393,31.23416,-0.77298,-11.12536,0.01989,0.02242,1.02796,38.114,37.872,37.146,39.470
14.403,25.08409,-1.50829,-10.51680,0.01303,0.03022,1.01884,38.114,37.872,37.159,39.470
14.413,19.25793,-2.61520,-9.49357,0.01513,0.02356,1.00035,38.114,37.872,37.159,39.470
14.423,13.78841,-4.14517,-8.08895,0.01494,0.01014,1.04957,38.114,37.872,37.159,39.470
14.433,8.66619,-6.16907,-6.35143,0.00655,0.01041,1.05651,38.114,37.872,37.159,39.470
14.443,3.94298,-8.75823,-4.30761,0.00792,0.01154,1.04984,38.114,37.872,37.159,39.470
14.453,0.63634,-11.96558,-2.01572,0.01829,0.00413,1.04454,38.114,38.096,37.159,39.470
14.463,0.57252,-15.77123,0.87973,0.02800,-0.01673,1.06271,38.114,38.096,37.159,39.360
14.473,0.50189,-20.33990,4.60393,0.03545,-0.02090,1.05788,38.114,38.096,37.159,39.360
14.483,0.69930,-25.54700,8.82362,0.05125,-0.01053,1.00928,38.114,38.096,37.159,39.470
14.493,0.96529,-31.40195,13.42936,0.07258,-0.02488,0.98296,38.114,38.096,37.159,39.581
14.503,1.22459,-37.77389,18.05875,0.09204,-0.04259,0.97196,38.114,38.096,37.159,39.360
14.513,1.24188,-44.42550,22.26820,0.11252,-0.04321,0.97516,38.114,38.096,37.159,39.360
14.523,0.97117,-50.98491,25.68857,0.15304,-0.07262,0.93955,38.114,38.096,37.159,39.470
14.533,0.81137,-57.19867,28.18889,0.16435,-0.04469,0.88655,38.114,38.096,37.159,39.470
14.543,0.88913,-62.88169,29.74324,0.19200,-0.05043,0.86681,38.114,38.096,37.159,39.470
14.553,0.86859,-67.74500,30.37402,0.20998,-0.07227,0.86291,38.115,38.096,37.159,39.470
